Time,header.seq,header.stamp.secs,header.stamp.nsecs,header.frame_id,orientation.x,orientation.y,orientation.z,orientation.w,orientation_covariance_0,orientation_covariance_1,orientation_covariance_2,orientation_covariance_3,orientation_covariance_4,orientation_covariance_5,orientation_covariance_6,orientation_covariance_7,orientation_covariance_8,angular_velocity.x,angular_velocity.y,angular_velocity.z,angular_velocity_covariance_0,angular_velocity_covariance_1,angular_velocity_covariance_2,angular_velocity_covariance_3,angular_velocity_covariance_4,angular_velocity_covariance_5,angular_velocity_covariance_6,angular_velocity_covariance_7,angular_velocity_covariance_8,linear_acceleration.x,linear_acceleration.y,linear_acceleration.z,linear_acceleration_covariance_0,linear_acceleration_covariance_1,linear_acceleration_covariance_2,linear_acceleration_covariance_3,linear_acceleration_covariance_4,linear_acceleration_covariance_5,linear_acceleration_covariance_6,linear_acceleration_covariance_7,linear_acceleration_covariance_8
110.042,109762,110,42000000,base_footprint,-1.9810763118316382e-06,0.0015896501000583502,0.00020094731916123817,0.9999987163135808,0.0,0.0,0.0,0.0,0.0,0.0,0.0,0.0,0.0,-4.8971235804770617e-05,-0.0002112392015268244,7.988175186149501e-06,0.0,0.0,0.0,0.0,0.0,0.0,0.0,0.0,0.0,9.970849454297566e-11,3.108339676626136e-10,8.680197618374821e-12,0.0,0.0,0.0,0.0,0.0,0.0,0.0,0.0,0.0
110.043,109763,110,43000000,base_footprint,-1.9810792229346752e-06,0.001589650100055486,0.00020094915108787717,0.9999987163132129,0.0,0.0,0.0,0.0,0.0,0.0,0.0,0.0,0.0,-4.8971234211191303e-05,-0.00021123920195415975,7.988177092432514e-06,0.0,0.0,0.0,0.0,0.0,0.0,0.0,0.0,0.0,9.929127399560266e-11,3.0963826619951674e-10,6.454770361912403e-12,0.0,0.0,0.0,0.0,0.0,0.0,0.0,0.0,0.0
110.044,109764,110,44000000,base_footprint,-1.981082134035972e-06,0.001589650100052618,0.00020095098301462988,0.9999987163128448,0.0,0.0,0.0,0.0,0.0,0.0,0.0,0.0,0.0,-4.8971232605507225e-05,-0.00021123920239128738,7.988178986676567e-06,0.0,0.0,0.0,0.0,0.0,0.0,0.0,0.0,0.0,9.865839135350278e-11,3.0770591145074647e-10,7.5304144551479e-12,0.0,0.0,0.0,0.0,0.0,0.0,0.0,0.0,0.0
110.045,109765,110,45000000,base_footprint,-1.9810850451317253e-06,0.0015896501000497599,0.00020095281494150768,0.9999987163124765,0.0,0.0,0.0,0.0,0.0,0.0,0.0,0.0,0.0,-4.897123099216198e-05,-0.00021123920280147264,7.988180903657978e-06,0.0,0.0,0.0,0.0,0.0,0.0,0.0,0.0,0.0,9.985503697264231e-11,3.114023509978424e-10,7.143237437930984e-12,0.0,0.0,0.0,0.0,0.0,0.0,0.0,0.0,0.0
110.046,109766,110,46000000,base_footprint,-1.9810879562298237e-06,0.0015896501000469021,0.00020095464686850723,0.9999987163121085,0.0,0.0,0.0,0.0,0.0,0.0,0.0,0.0,0.0,-4.89712293946831e-05,-0.00021123920323224606,7.988182813803613e-06,0.0,0.0,0.0,0.0,0.0,0.0,0.0,0.0,0.0,9.951198300151045e-11,3.102701101778661e-10,9.164191846115127e-12,0.0,0.0,0.0,0.0,0.0,0.0,0.0,0.0,0.0
110.047,109767,110,47000000,base_footprint,-1.981090867341154e-06,0.001589650100044041,0.0002009564787956308,0.9999987163117403,0.0,0.0,0.0,0.0,0.0,0.0,0.0,0.0,0.0,-4.897122781889388e-05,-0.00021123920366878242,7.9881847288708e-06,0.0,0.0,0.0,0.0,0.0,0.0,0.0,0.0,0.0,9.977669909098822e-11,3.1103474015670366e-10,8.4960440049664e-12,0.0,0.0,0.0,0.0,0.0,0.0,0.0,0.0,0.0
110.048,109768,110,48000000,base_footprint,-1.981093778469123e-06,0.0015896501000411758,0.00020095831072287153,0.9999987163113722,0.0,0.0,0.0,0.0,0.0,0.0,0.0,0.0,0.0,-4.897122624998945e-05,-0.00021123920410716092,7.988186630234501e-06,0.0,0.0,0.0,0.0,0.0,0.0,0.0,0.0,0.0,9.902818924690475e-11,3.0880344577659537e-10,4.802830915953752e-12,0.0,0.0,0.0,0.0,0.0,0.0,0.0,0.0,0.0
110.049,109769,110,49000000,base_footprint,-1.9810966895848336e-06,0.001589650100038307,0.00020096014265022198,0.999998716311004,0.0,0.0,0.0,0.0,0.0,0.0,0.0,0.0,0.0,-4.897122462315978e-05,-0.00021123920454479918,7.988188516141735e-06,0.0,0.0,0.0,0.0,0.0,0.0,0.0,0.0,0.0,9.821576349527558e-11,3.06387094631951e-10,8.152462098477813e-12,0.0,0.0,0.0,0.0,0.0,0.0,0.0,0.0,0.0
110.05,109770,110,50000000,base_footprint,-1.981099600682407e-06,0.0015896501000354489,0.00020096197457769525,0.9999987163106359,0.0,0.0,0.0,0.0,0.0,0.0,0.0,0.0,0.0,-4.89712229846922e-05,-0.00021123920495373291,7.988190428218967e-06,0.0,0.0,0.0,0.0,0.0,0.0,0.0,0.0,0.0,9.959150374379337e-11,3.1064593446801067e-10,6.36283260189533e-12,0.0,0.0,0.0,0.0,0.0,0.0,0.0,0.0,0.0
110.051,109771,110,51000000,base_footprint,-1.9811025117728454e-06,0.0015896501000326035,0.00020096380650528377,0.9999987163102677,0.0,0.0,0.0,0.0,0.0,0.0,0.0,0.0,0.0,-4.897122136832234e-05,-0.00021123920535854273,7.988192325403884e-06,0.0,0.0,0.0,0.0,0.0,0.0,0.0,0.0,0.0,9.878784350660611e-11,3.0819878874435846e-10,8.127473549009087e-12,0.0,0.0,0.0,0.0,0.0,0.0,0.0,0.0,0.0
110.052,109772,110,52000000,base_footprint,-1.981105422882172e-06,0.0015896501000297486,0.00020096563843298722,0.9999987163098996,0.0,0.0,0.0,0.0,0.0,0.0,0.0,0.0,0.0,-4.897121980405602e-05,-0.00021123920580825827,7.988194222290969e-06,0.0,0.0,0.0,0.0,0.0,0.0,0.0,0.0,0.0,9.880821227777872e-11,3.0807120039728086e-10,8.174728261523269e-12,0.0,0.0,0.0,0.0,0.0,0.0,0.0,0.0,0.0
110.053,109773,110,53000000,base_footprint,-1.9811083339949177e-06,0.0015896501000268806,0.00020096747036081361,0.9999987163095314,0.0,0.0,0.0,0.0,0.0,0.0,0.0,0.0,0.0,-4.897121820861568e-05,-0.0002112392062651116,7.988196135045099e-06,0.0,0.0,0.0,0.0,0.0,0.0,0.0,0.0,0.0,9.967702963539204e-11,3.10689799355426e-10,8.818832911522445e-12,0.0,0.0,0.0,0.0,0.0,0.0,0.0,0.0,0.0
110.054,109774,110,54000000,base_footprint,-1.9811112451001777e-06,0.0015896501000240107,0.00020096930228876033,0.9999987163091633,0.0,0.0,0.0,0.0,0.0,0.0,0.0,0.0,0.0,-4.89712165912816e-05,-0.0002112392066989222,7.988198042311629e-06,0.0,0.0,0.0,0.0,0.0,0.0,0.0,0.0,0.0,9.936010724016575e-11,3.098338561349245e-10,8.15642455511789e-12,0.0,0.0,0.0,0.0,0.0,0.0,0.0,0.0,0.0
110.055,109775,110,55000000,base_footprint,-1.9811141561936225e-06,0.0015896501000211508,0.00020097113421682153,0.9999987163087951,0.0,0.0,0.0,0.0,0.0,0.0,0.0,0.0,0.0,-4.897121496544435e-05,-0.00021123920710928372,7.988199937855042e-06,0.0,0.0,0.0,0.0,0.0,0.0,0.0,0.0,0.0,9.870255055311761e-11,3.079472154448857e-10,6.842343154275637e-12,0.0,0.0,0.0,0.0,0.0,0.0,0.0,0.0,0.0
110.056,109776,110,56000000,base_footprint,-1.9811170672939867e-06,0.0015896501000182944,0.0002009729661450096,0.999998716308427,0.0,0.0,0.0,0.0,0.0,0.0,0.0,0.0,0.0,-4.897121337717212e-05,-0.00021123920753280938,7.988201858388347e-06,0.0,0.0,0.0,0.0,0.0,0.0,0.0,0.0,0.0,1.0005652575761696e-10,3.1193966294568694e-10,7.475872986233833e-12,0.0,0.0,0.0,0.0,0.0,0.0,0.0,0.0,0.0
110.057,109777,110,57000000,base_footprint,-1.9811199784105452e-06,0.0015896501000154419,0.00020097479807331924,0.9999987163080587,0.0,0.0,0.0,0.0,0.0,0.0,0.0,0.0,0.0,-4.8971211807352665e-05,-0.00021123920795514066,7.988203768667655e-06,0.0,0.0,0.0,0.0,0.0,0.0,0.0,0.0,0.0,9.950065271164136e-11,3.1024960904495857e-10,7.487643091596024e-12,0.0,0.0,0.0,0.0,0.0,0.0,0.0,0.0,0.0
110.058,109778,110,58000000,base_footprint,-1.981122889516764e-06,0.0015896501000125828,0.00020097663000175344,0.9999987163076904,0.0,0.0,0.0,0.0,0.0,0.0,0.0,0.0,0.0,-4.897121018422529e-05,-0.0002112392083983881,7.988205684291656e-06,0.0,0.0,0.0,0.0,0.0,0.0,0.0,0.0,0.0,9.981102418040186e-11,3.1119703731999413e-10,5.2128042391459095e-12,0.0,0.0,0.0,0.0,0.0,0.0,0.0,0.0,0.0
110.059,109779,110,59000000,base_footprint,-1.9811258006251175e-06,0.0015896501000097266,0.00020097846193030183,0.9999987163073223,0.0,0.0,0.0,0.0,0.0,0.0,0.0,0.0,0.0,-4.897120858646182e-05,-0.0002112392088237625,7.988207579444926e-06,0.0,0.0,0.0,0.0,0.0,0.0,0.0,0.0,0.0,9.869925396014542e-11,3.0784112334766277e-10,9.115469990913284e-12,0.0,0.0,0.0,0.0,0.0,0.0,0.0,0.0,0.0
110.06,109780,110,60000000,base_footprint,-1.98112871173117e-06,0.0015896501000068654,0.00020098029385896008,0.9999987163069541,0.0,0.0,0.0,0.0,0.0,0.0,0.0,0.0,0.0,-4.89712069797244e-05,-0.0002112392092641748,7.988209465967082e-06,0.0,0.0,0.0,0.0,0.0,0.0,0.0,0.0,0.0,9.826082181714286e-11,3.064562506753733e-10,1.2160932333324632e-11,0.0,0.0,0.0,0.0,0.0,0.0,0.0,0.0,0.0
110.061,109781,110,61000000,base_footprint,-1.981131622837573e-06,0.001589650100004002,0.00020098212578775393,0.999998716306586,0.0,0.0,0.0,0.0,0.0,0.0,0.0,0.0,0.0,-4.897120537802006e-05,-0.00021123920969852458,7.988211403929908e-06,0.0,0.0,0.0,0.0,0.0,0.0,0.0,0.0,0.0,1.0100879181463387e-10,3.1478468156590686e-10,7.80754078174474e-12,0.0,0.0,0.0,0.0,0.0,0.0,0.0,0.0,0.0
110.062,109782,110,62000000,base_footprint,-1.9811345339516735e-06,0.001589650100001144,0.0002009839577166621,0.9999987163062178,0.0,0.0,0.0,0.0,0.0,0.0,0.0,0.0,0.0,-4.897120379126281e-05,-0.00021123921011832948,7.988213299390715e-06,0.0,0.0,0.0,0.0,0.0,0.0,0.0,0.0,0.0,9.870164708359373e-11,3.078738801512748e-10,6.881879260642521e-12,0.0,0.0,0.0,0.0,0.0,0.0,0.0,0.0,0.0
110.063,109783,110,63000000,base_footprint,-1.9811374450601213e-06,0.0015896500999982872,0.00020098578964569138,0.9999987163058497,0.0,0.0,0.0,0.0,0.0,0.0,0.0,0.0,0.0,-4.89712021776798e-05,-0.0002112392105465626,7.988215208256128e-06,0.0,0.0,0.0,0.0,0.0,0.0,0.0,0.0,0.0,9.943530576025013e-11,3.1008747522526417e-10,6.8154463173502526e-12,0.0,0.0,0.0,0.0,0.0,0.0,0.0,0.0,0.0
110.064,109784,110,64000000,base_footprint,-1.9811403561658302e-06,0.0015896500999954264,0.00020098762157482781,0.9999987163054813,0.0,0.0,0.0,0.0,0.0,0.0,0.0,0.0,0.0,-4.897120057010067e-05,-0.0002112392109839261,7.988217089382739e-06,0.0,0.0,0.0,0.0,0.0,0.0,0.0,0.0,0.0,9.795306962371464e-11,3.0558316411940707e-10,7.63820742693899e-12,0.0,0.0,0.0,0.0,0.0,0.0,0.0,0.0,0.0
110.065,109785,110,65000000,base_footprint,-1.9811432672806422e-06,0.0015896500999925652,0.00020098945350409286,0.9999987163051132,0.0,0.0,0.0,0.0,0.0,0.0,0.0,0.0,0.0,-4.8971198986065786e-05,-0.0002112392114159789,7.988219013425306e-06,0.0,0.0,0.0,0.0,0.0,0.0,0.0,0.0,0.0,1.0025483459034821e-10,3.125019478739103e-10,8.00166335351725e-12,0.0,0.0,0.0,0.0,0.0,0.0,0.0,0.0,0.0
110.066,109786,110,66000000,base_footprint,-1.9811461783903187e-06,0.001589650099989705,0.0002009912854334776,0.999998716304745,0.0,0.0,0.0,0.0,0.0,0.0,0.0,0.0,0.0,-4.8971197373515246e-05,-0.00021123921184436069,7.988220919495558e-06,0.0,0.0,0.0,0.0,0.0,0.0,0.0,0.0,0.0,9.928687005722601e-11,3.0963253183071685e-10,7.283701714658722e-12,0.0,0.0,0.0,0.0,0.0,0.0,0.0,0.0,0.0
110.069,109787,110,67000000,base_footprint,-1.981149089503395e-06,0.0015896500999868421,0.00020099311736297248,0.9999987163043769,0.0,0.0,0.0,0.0,0.0,0.0,0.0,0.0,0.0,-4.897119577820475e-05,-0.00021123921228012008,7.988222806595536e-06,0.0,0.0,0.0,0.0,0.0,0.0,0.0,0.0,0.0,9.827663774108817e-11,3.065325189353138e-10,9.464619874313937e-12,0.0,0.0,0.0,0.0,0.0,0.0,0.0,0.0,0.0
110.069,109788,110,68000000,base_footprint,-1.9811520006176976e-06,0.0015896500999839755,0.00020099494929259786,0.9999987163040086,0.0,0.0,0.0,0.0,0.0,0.0,0.0,0.0,0.0,-4.897119417834039e-05,-0.000211239212717985,7.988224734354873e-06,0.0,0.0,0.0,0.0,0.0,0.0,0.0,0.0,0.0,1.0045823271994743e-10,3.1312831553929785e-10,6.350971721424127e-12,0.0,0.0,0.0,0.0,0.0,0.0,0.0,0.0,0.0
110.069,109789,110,69000000,base_footprint,-1.981154911722703e-06,0.0015896500999811206,0.00020099678122233847,0.9999987163036403,0.0,0.0,0.0,0.0,0.0,0.0,0.0,0.0,0.0,-4.897119255749418e-05,-0.0002112392131247893,7.988226631411141e-06,0.0,0.0,0.0,0.0,0.0,0.0,0.0,0.0,0.0,9.878198924323858e-11,3.081845026612417e-10,7.502649740217563e-12,0.0,0.0,0.0,0.0,0.0,0.0,0.0,0.0,0.0
110.07,109790,110,70000000,base_footprint,-1.9811578228257604e-06,0.0015896500999782665,0.00020099861315219802,0.9999987163032721,0.0,0.0,0.0,0.0,0.0,0.0,0.0,0.0,0.0,-4.897119095145498e-05,-0.00021123921355343503,7.988228536030502e-06,0.0,0.0,0.0,0.0,0.0,0.0,0.0,0.0,0.0,9.920771316545177e-11,3.093878481323409e-10,7.370887615437762e-12,0.0,0.0,0.0,0.0,0.0,0.0,0.0,0.0,0.0
110.072,109791,110,71000000,base_footprint,-1.981160733940227e-06,0.0015896500999754144,0.00020100044508216972,0.999998716302904,0.0,0.0,0.0,0.0,0.0,0.0,0.0,0.0,0.0,-4.8971189372176193e-05,-0.0002112392139810693,7.988230427178114e-06,0.0,0.0,0.0,0.0,0.0,0.0,0.0,0.0,0.0,9.847800915388391e-11,3.071639409594013e-10,7.673109637601449e-12,0.0,0.0,0.0,0.0,0.0,0.0,0.0,0.0,0.0
110.072,109792,110,72000000,base_footprint,-1.981163645053405e-06,0.0015896500999725601,0.00020100227701226996,0.9999987163025358,0.0,0.0,0.0,0.0,0.0,0.0,0.0,0.0,0.0,-4.8971187767255556e-05,-0.00021123921441492858,7.98823235105159e-06,0.0,0.0,0.0,0.0,0.0,0.0,0.0,0.0,0.0,1.0025417563213971e-10,3.1250640103627743e-10,8.992915801073353e-12,0.0,0.0,0.0,0.0,0.0,0.0,0.0,0.0,0.0
110.073,109793,110,73000000,base_footprint,-1.9811665561608185e-06,0.0015896500999696965,0.00020100410894248257,0.9999987163021675,0.0,0.0,0.0,0.0,0.0,0.0,0.0,0.0,0.0,-4.897118615354864e-05,-0.0002112392148639856,7.98823424245435e-06,0.0,0.0,0.0,0.0,0.0,0.0,0.0,0.0,0.0,9.851923442268557e-11,3.0725739770469946e-10,7.562802306221283e-12,0.0,0.0,0.0,0.0,0.0,0.0,0.0,0.0,0.0
110.074,109794,110,74000000,base_footprint,-1.981169467271427e-06,0.0015896500999668286,0.00020100594087280778,0.9999987163017993,0.0,0.0,0.0,0.0,0.0,0.0,0.0,0.0,0.0,-4.897118455782375e-05,-0.00021123921530313573,7.988236134488079e-06,0.0,0.0,0.0,0.0,0.0,0.0,0.0,0.0,0.0,9.854735497178456e-11,3.073327157857068e-10,1.0014756577850209e-11,0.0,0.0,0.0,0.0,0.0,0.0,0.0,0.0,0.0
110.075,109795,110,75000000,base_footprint,-1.9811723783792863e-06,0.0015896500999639713,0.00020100777280325163,0.999998716301431,0.0,0.0,0.0,0.0,0.0,0.0,0.0,0.0,0.0,-4.897118295008042e-05,-0.00021123921571176624,7.988238038469297e-06,0.0,0.0,0.0,0.0,0.0,0.0,0.0,0.0,0.0,9.914906454240538e-11,3.09287192322492e-10,6.04469553898784e-12,0.0,0.0,0.0,0.0,0.0,0.0,0.0,0.0,0.0
110.076,109796,110,76000000,base_footprint,-1.9811752894985583e-06,0.0015896500999611183,0.00020100960473382705,0.9999987163010627,0.0,0.0,0.0,0.0,0.0,0.0,0.0,0.0,0.0,-4.897118137066503e-05,-0.00021123921613371604,7.988239968490097e-06,0.0,0.0,0.0,0.0,0.0,0.0,0.0,0.0,0.0,1.0056077220204157e-10,3.1346342397658695e-10,6.357901560403096e-12,0.0,0.0,0.0,0.0,0.0,0.0,0.0,0.0,0.0
110.077,109797,110,77000000,base_footprint,-1.981178200600578e-06,0.0015896500999582528,0.00020101143666451395,0.9999987163006945,0.0,0.0,0.0,0.0,0.0,0.0,0.0,0.0,0.0,-4.8971179733880485e-05,-0.0002112392165895177,7.988241858002583e-06,0.0,0.0,0.0,0.0,0.0,0.0,0.0,0.0,0.0,9.843939035803334e-11,3.0698625919057356e-10,1.1096185193195325e-11,0.0,0.0,0.0,0.0,0.0,0.0,0.0,0.0,0.0
110.078,109798,110,78000000,base_footprint,-1.981181111708139e-06,0.0015896500999553903,0.0002010132685953178,0.9999987163003264,0.0,0.0,0.0,0.0,0.0,0.0,0.0,0.0,0.0,-4.8971178142886885e-05,-0.00021123921701470102,7.988243758704713e-06,0.0,0.0,0.0,0.0,0.0,0.0,0.0,0.0,0.0,9.89943045430307e-11,3.0873024485101447e-10,8.517420738278619e-12,0.0,0.0,0.0,0.0,0.0,0.0,0.0,0.0,0.0
110.079,109799,110,79000000,base_footprint,-1.9811840228298454e-06,0.0015896500999525295,0.0002010151005262446,0.9999987162999582,0.0,0.0,0.0,0.0,0.0,0.0,0.0,0.0,0.0,-4.89711765689304e-05,-0.00021123921744058756,7.988245671646187e-06,0.0,0.0,0.0,0.0,0.0,0.0,0.0,0.0,0.0,9.964243596292676e-11,3.1068753515399985e-10,5.785377235571826e-12,0.0,0.0,0.0,0.0,0.0,0.0,0.0,0.0,0.0
110.08,109800,110,80000000,base_footprint,-1.9811869339332356e-06,0.0015896500999496692,0.00020101693245729057,0.9999987162995899,0.0,0.0,0.0,0.0,0.0,0.0,0.0,0.0,0.0,-4.897117492996796e-05,-0.00021123921787024518,7.98824757642117e-06,0.0,0.0,0.0,0.0,0.0,0.0,0.0,0.0,0.0,9.9229724876045e-11,3.0946297914110014e-10,9.484608818838792e-12,0.0,0.0,0.0,0.0,0.0,0.0,0.0,0.0,0.0
110.081,109801,110,81000000,base_footprint,-1.981189845050945e-06,0.0015896500999468108,0.00020101876438845853,0.9999987162992217,0.0,0.0,0.0,0.0,0.0,0.0,0.0,0.0,0.0,-4.897117335652285e-05,-0.00021123921829662367,7.988249487411936e-06,0.0,0.0,0.0,0.0,0.0,0.0,0.0,0.0,0.0,9.954259394849615e-11,3.103706425925972e-10,7.278866893684348e-12,0.0,0.0,0.0,0.0,0.0,0.0,0.0,0.0,0.0
110.082,109802,110,82000000,base_footprint,-1.9811927561645003e-06,0.0015896500999439506,0.00020102059631974163,0.9999987162988534,0.0,0.0,0.0,0.0,0.0,0.0,0.0,0.0,0.0,-4.8971171745907876e-05,-0.0002112392187303638,7.988251384385763e-06,0.0,0.0,0.0,0.0,0.0,0.0,0.0,0.0,0.0,9.880087642395399e-11,3.081557852568538e-10,6.978632877147458e-12,0.0,0.0,0.0,0.0,0.0,0.0,0.0,0.0,0.0
110.082,73201,1778970858,692535394,imu_link,0.0036508364137262106,0.040885940194129944,-0.17422904074192047,-0.9838449954986572,0.0024999999441206455,0.0,0.0,0.0,0.0024999999441206455,0.0,0.0,0.0,0.0024999999441206455,0.0,0.0,0.0,0.019999999552965164,0.0,0.0,0.0,0.019999999552965164,0.0,0.0,0.0,0.019999999552965164,0.6344634294509888,-0.18136078119277954,9.618106842041016,0.03999999910593033,0.0,0.0,0.0,0.03999999910593033,0.0,0.0,0.0,0.03999999910593033
110.083,109803,110,83000000,base_footprint,-1.981195667278875e-06,0.0015896500999410864,0.00020102242825114437,0.9999987162984851,0.0,0.0,0.0,0.0,0.0,0.0,0.0,0.0,0.0,-4.897117014543224e-05,-0.00021123921916891043,7.988253290487299e-06,0.0,0.0,0.0,0.0,0.0,0.0,0.0,0.0,0.0,9.930155422554607e-11,3.096195394936992e-10,8.96002979402493e-12,0.0,0.0,0.0,0.0,0.0,0.0,0.0,0.0,0.0
110.084,109804,110,84000000,base_footprint,-1.981198578394718e-06,0.001589650099938226,0.00020102426018266646,0.9999987162981169,0.0,0.0,0.0,0.0,0.0,0.0,0.0,0.0,0.0,-4.8971168546078884e-05,-0.00021123921959153685,7.988255195880677e-06,0.0,0.0,0.0,0.0,0.0,0.0,0.0,0.0,0.0,9.923941160140165e-11,3.095030018771361e-10,6.473475674093936e-12,0.0,0.0,0.0,0.0,0.0,0.0,0.0,0.0,0.0
110.085,109805,110,85000000,base_footprint,-1.981201489504494e-06,0.0015896500999353688,0.00020102609211431534,0.9999987162977486,0.0,0.0,0.0,0.0,0.0,0.0,0.0,0.0,0.0,-4.8971166931590976e-05,-0.00021123922001607665,7.988257116101197e-06,0.0,0.0,0.0,0.0,0.0,0.0,0.0,0.0,0.0,1.0004283726265288e-10,3.119288000824719e-10,6.73069987384529e-12,0.0,0.0,0.0,0.0,0.0,0.0,0.0,0.0,0.0
110.086,109806,110,86000000,base_footprint,-1.981204400615202e-06,0.0015896500999325073,0.00020102792404607867,0.9999987162973804,0.0,0.0,0.0,0.0,0.0,0.0,0.0,0.0,0.0,-4.897116533136191e-05,-0.00021123922045469953,7.98825901177077e-06,0.0,0.0,0.0,0.0,0.0,0.0,0.0,0.0,0.0,9.873960231690356e-11,3.0792839852617596e-10,8.707062492153978e-12,0.0,0.0,0.0,0.0,0.0,0.0,0.0,0.0,0.0
110.086,73202,1778970858,694535394,imu_link,0.003524357918649912,0.04021323099732399,-0.1742311716079712,-0.983872652053833,0.0024999999441206455,0.0,0.0,0.0,0.0024999999441206455,0.0,0.0,0.0,0.0024999999441206455,0.0,0.0,0.0,0.019999999552965164,0.0,0.0,0.0,0.019999999552965164,0.0,0.0,0.0,0.019999999552965164,0.6625953316688538,-0.16879121959209442,9.585186004638672,0.03999999910593033,0.0,0.0,0.0,0.03999999910593033,0.0,0.0,0.0,0.03999999910593033
110.087,109807,110,87000000,base_footprint,-1.981207311736921e-06,0.0015896500999296448,0.00020102975597795174,0.9999987162970121,0.0,0.0,0.0,0.0,0.0,0.0,0.0,0.0,0.0,-4.8971163751251825e-05,-0.00021123922088738076,7.988260898273653e-06,0.0,0.0,0.0,0.0,0.0,0.0,0.0,0.0,0.0,9.823475955851379e-11,3.0641280822551456e-10,8.297671722993538e-12,0.0,0.0,0.0,0.0,0.0,0.0,0.0,0.0,0.0
110.088,109808,110,88000000,base_footprint,-1.9812102228463826e-06,0.001589650099926779,0.0002010315879099516,0.9999987162966438,0.0,0.0,0.0,0.0,0.0,0.0,0.0,0.0,0.0,-4.897116212433911e-05,-0.00021123922132411024,7.988262818454574e-06,0.0,0.0,0.0,0.0,0.0,0.0,0.0,0.0,0.0,1.0006412093864881e-10,3.1194136827875105e-10,9.598917033811114e-12,0.0,0.0,0.0,0.0,0.0,0.0,0.0,0.0,0.0
110.089,109809,110,89000000,base_footprint,-1.9812131339638408e-06,0.001589650099923923,0.00020103341984206442,0.9999987162962756,0.0,0.0,0.0,0.0,0.0,0.0,0.0,0.0,0.0,-4.897116053833076e-05,-0.00021123922173493963,7.98826471114173e-06,0.0,0.0,0.0,0.0,0.0,0.0,0.0,0.0,0.0,9.85366880608852e-11,3.0742353432625063e-10,4.983612502251339e-12,0.0,0.0,0.0,0.0,0.0,0.0,0.0,0.0,0.0
110.09,109810,110,90000000,base_footprint,-1.981216045078692e-06,0.0015896500999210677,0.0002010352517742985,0.9999987162959072,0.0,0.0,0.0,0.0,0.0,0.0,0.0,0.0,0.0,-4.897115893083747e-05,-0.0002112392221636539,7.988266620468959e-06,0.0,0.0,0.0,0.0,0.0,0.0,0.0,0.0,0.0,9.945804743964316e-11,3.1015308358925996e-10,6.370882359248364e-12,0.0,0.0,0.0,0.0,0.0,0.0,0.0,0.0,0.0
110.091,109811,110,91000000,base_footprint,-1.9812189561899102e-06,0.0015896500999182145,0.00020103708370665204,0.9999987162955388,0.0,0.0,0.0,0.0,0.0,0.0,0.0,0.0,0.0,-4.897115732132583e-05,-0.0002112392225894959,7.988268526107295e-06,0.0,0.0,0.0,0.0,0.0,0.0,0.0,0.0,0.0,9.926350707390553e-11,3.0955809348239376e-10,8.316389165806573e-12,0.0,0.0,0.0,0.0,0.0,0.0,0.0,0.0,0.0
110.092,109812,110,92000000,base_footprint,-1.981221867310456e-06,0.0015896500999153568,0.00020103891563913015,0.9999987162951706,0.0,0.0,0.0,0.0,0.0,0.0,0.0,0.0,0.0,-4.897115573780374e-05,-0.00021123922302969004,7.988270442042347e-06,0.0,0.0,0.0,0.0,0.0,0.0,0.0,0.0,0.0,9.982640864314016e-11,3.111871453135254e-10,7.909586258001764e-12,0.0,0.0,0.0,0.0,0.0,0.0,0.0,0.0,0.0
110.093,109813,110,93000000,base_footprint,-1.9812247784250992e-06,0.0015896500999124975,0.00020104074757172654,0.9999987162948023,0.0,0.0,0.0,0.0,0.0,0.0,0.0,0.0,0.0,-4.897115412370398e-05,-0.00021123922346292235,7.988272345316384e-06,0.0,0.0,0.0,0.0,0.0,0.0,0.0,0.0,0.0,9.915309986115101e-11,3.091818441049955e-10,1.0987375749866344e-11,0.0,0.0,0.0,0.0,0.0,0.0,0.0,0.0,0.0
110.094,109814,110,94000000,base_footprint,-1.9812276895328004e-06,0.001589650099909641,0.0002010425795044377,0.999998716294434,0.0,0.0,0.0,0.0,0.0,0.0,0.0,0.0,0.0,-4.8971152507601324e-05,-0.00021123922388776507,7.988274241535053e-06,0.0,0.0,0.0,0.0,0.0,0.0,0.0,0.0,0.0,9.875814505061522e-11,3.0804188230743045e-10,8.901232012836118e-12,0.0,0.0,0.0,0.0,0.0,0.0,0.0,0.0,0.0
110.095,109815,110,95000000,base_footprint,-1.98123060063424e-06,0.0015896500999067753,0.00020104441143727173,0.9999987162940658,0.0,0.0,0.0,0.0,0.0,0.0,0.0,0.0,0.0,-4.897115089282468e-05,-0.00021123922433697454,7.98827615390858e-06,0.0,0.0,0.0,0.0,0.0,0.0,0.0,0.0,0.0,9.964596279462769e-11,3.1065766575292536e-10,6.9615077868100476e-12,0.0,0.0,0.0,0.0,0.0,0.0,0.0,0.0,0.0
110.095,73203,1778970858,699535394,imu_link,0.003524357918649912,0.04021323099732399,-0.1742311716079712,-0.983872652053833,0.0024999999441206455,0.0,0.0,0.0,0.0024999999441206455,0.0,0.0,0.0,0.0024999999441206455,0.0,0.0,0.0,0.019999999552965164,0.0,0.0,0.0,0.019999999552965164,0.0,0.0,0.0,0.019999999552965164,0.6625953316688538,-0.16879121959209442,9.585186004638672,0.03999999910593033,0.0,0.0,0.0,0.03999999910593033,0.0,0.0,0.0,0.03999999910593033
110.096,109816,110,96000000,base_footprint,-1.981233511747542e-06,0.0015896500999039115,0.00020104624337022106,0.9999987162936975,0.0,0.0,0.0,0.0,0.0,0.0,0.0,0.0,0.0,-4.897114931450245e-05,-0.00021123922476325177,7.98827805151455e-06,0.0,0.0,0.0,0.0,0.0,0.0,0.0,0.0,0.0,9.882553997997244e-11,3.082089959962068e-10,8.113949974656162e-12,0.0,0.0,0.0,0.0,0.0,0.0,0.0,0.0,0.0
110.097,109817,110,97000000,base_footprint,-1.9812364228666057e-06,0.0015896500999010466,0.00020104807530328976,0.9999987162933291,0.0,0.0,0.0,0.0,0.0,0.0,0.0,0.0,0.0,-4.897114772376729e-05,-0.0002112392251955761,7.988279957091969e-06,0.0,0.0,0.0,0.0,0.0,0.0,0.0,0.0,0.0,9.92548180661635e-11,3.095197995560229e-10,5.655568078365718e-12,0.0,0.0,0.0,0.0,0.0,0.0,0.0,0.0,0.0
110.098,109818,110,98000000,base_footprint,-1.9812393339825252e-06,0.0015896500998981858,0.0002010499072364734,0.9999987162929608,0.0,0.0,0.0,0.0,0.0,0.0,0.0,0.0,0.0,-4.8971146115245855e-05,-0.00021123922561760294,7.988281853695835e-06,0.0,0.0,0.0,0.0,0.0,0.0,0.0,0.0,0.0,9.877262827923781e-11,3.080926482093376e-10,8.190717996266997e-12,0.0,0.0,0.0,0.0,0.0,0.0,0.0,0.0,0.0
110.099,109819,110,99000000,base_footprint,-1.9812422450960828e-06,0.0015896500998953233,0.00020105173916978478,0.9999987162925925,0.0,0.0,0.0,0.0,0.0,0.0,0.0,0.0,0.0,-4.8971144508190335e-05,-0.00021123922605191802,7.98828377581989e-06,0.0,0.0,0.0,0.0,0.0,0.0,0.0,0.0,0.0,1.0015733119143412e-10,3.122259447499375e-10,7.829775213240014e-12,0.0,0.0,0.0,0.0,0.0,0.0,0.0,0.0,0.0
110.1,109820,110,100000000,base_footprint,-1.9812451562119214e-06,0.0015896500998924628,0.00020105357110321808,0.9999987162922243,0.0,0.0,0.0,0.0,0.0,0.0,0.0,0.0,0.0,-4.897114291060131e-05,-0.0002112392264783319,7.988285686548959e-06,0.0,0.0,0.0,0.0,0.0,0.0,0.0,0.0,0.0,9.95404542927246e-11,3.1036487230244533e-10,9.690971404550204e-12,0.0,0.0,0.0,0.0,0.0,0.0,0.0,0.0,0.0
110.101,109821,110,101000000,base_footprint,-1.9812480673314056e-06,0.0015896500998896,0.00020105540303676434,0.9999987162918559,0.0,0.0,0.0,0.0,0.0,0.0,0.0,0.0,0.0,-4.8971141315654866e-05,-0.00021123922691292915,7.988287579270227e-06,0.0,0.0,0.0,0.0,0.0,0.0,0.0,0.0,0.0,9.856785856581062e-11,3.074428446181401e-10,6.2957568961661964e-12,0.0,0.0,0.0,0.0,0.0,0.0,0.0,0.0,0.0
110.101,73204,1778970858,704535394,imu_link,0.0034231985919177532,0.03947681188583374,-0.17423491179943085,-0.9839022159576416,0.0024999999441206455,0.0,0.0,0.0,0.0024999999441206455,0.0,0.0,0.0,0.0024999999441206455,0.0,0.0,0.0,0.019999999552965164,0.0,0.0,0.0,0.019999999552965164,0.0,0.0,0.0,0.019999999552965164,0.6482300758361816,-0.16879121959209442,9.621099472045898,0.03999999910593033,0.0,0.0,0.0,0.03999999910593033,0.0,0.0,0.0,0.03999999910593033
110.102,109822,110,102000000,base_footprint,-1.9812509784572405e-06,0.0015896500998867412,0.00020105723497042857,0.9999987162914875,0.0,0.0,0.0,0.0,0.0,0.0,0.0,0.0,0.0,-4.897113972620527e-05,-0.00021123922733558943,7.988289481955017e-06,0.0,0.0,0.0,0.0,0.0,0.0,0.0,0.0,0.0,9.909161921702487e-11,3.090490943805867e-10,6.430863874440506e-12,0.0,0.0,0.0,0.0,0.0,0.0,0.0,0.0,0.0
110.103,109823,110,103000000,base_footprint,-1.981253889572659e-06,0.0015896500998838791,0.00020105906690421647,0.9999987162911191,0.0,0.0,0.0,0.0,0.0,0.0,0.0,0.0,0.0,-4.8971138103056615e-05,-0.00021123922777269911,7.988291395993129e-06,0.0,0.0,0.0,0.0,0.0,0.0,0.0,0.0,0.0,9.973246627065837e-11,3.1094003289077574e-10,9.312823624051462e-12,0.0,0.0,0.0,0.0,0.0,0.0,0.0,0.0,0.0
110.106,109824,110,104000000,base_footprint,-1.9812568006794195e-06,0.0015896500998810157,0.00020106089883812492,0.9999987162907508,0.0,0.0,0.0,0.0,0.0,0.0,0.0,0.0,0.0,-4.8971136483466506e-05,-0.00021123922820566154,7.988293303625511e-06,0.0,0.0,0.0,0.0,0.0,0.0,0.0,0.0,0.0,9.937861276766306e-11,3.0989669842112197e-10,8.033788799388014e-12,0.0,0.0,0.0,0.0,0.0,0.0,0.0,0.0,0.0
110.106,109825,110,105000000,base_footprint,-1.98125971178136e-06,0.0015896500998781589,0.00020106273077215135,0.9999987162903824,0.0,0.0,0.0,0.0,0.0,0.0,0.0,0.0,0.0,-4.8971134871655635e-05,-0.00021123922862285592,7.988295206284268e-06,0.0,0.0,0.0,0.0,0.0,0.0,0.0,0.0,0.0,9.909142241747293e-11,3.0907879710751407e-10,7.28308544864689e-12,0.0,0.0,0.0,0.0,0.0,0.0,0.0,0.0,0.0
110.106,109826,110,106000000,base_footprint,-1.9812626229083523e-06,0.001589650099875301,0.00020106456270628308,0.9999987162900142,0.0,0.0,0.0,0.0,0.0,0.0,0.0,0.0,0.0,-4.897113331980645e-05,-0.00021123922905632415,7.988297083957184e-06,0.0,0.0,0.0,0.0,0.0,0.0,0.0,0.0,0.0,9.775060324448478e-11,3.049387417720818e-10,6.744280989266313e-12,0.0,0.0,0.0,0.0,0.0,0.0,0.0,0.0,0.0
110.107,109827,110,107000000,base_footprint,-1.981265534030074e-06,0.0015896500998724404,0.0002010663946405414,0.9999987162896459,0.0,0.0,0.0,0.0,0.0,0.0,0.0,0.0,0.0,-4.897113170683375e-05,-0.00021123922949106572,7.988299003847891e-06,0.0,0.0,0.0,0.0,0.0,0.0,0.0,0.0,0.0,1.0003687206943406e-10,3.1187330368241085e-10,7.425370857111812e-12,0.0,0.0,0.0,0.0,0.0,0.0,0.0,0.0,0.0
110.108,109828,110,108000000,base_footprint,-1.981268445148398e-06,0.001589650099869584,0.0002010682265749163,0.9999987162892775,0.0,0.0,0.0,0.0,0.0,0.0,0.0,0.0,0.0,-4.897113009785797e-05,-0.00021123922991342657,7.98830090379092e-06,0.0,0.0,0.0,0.0,0.0,0.0,0.0,0.0,0.0,9.895578161062769e-11,3.086341746212091e-10,9.021578133790795e-12,0.0,0.0,0.0,0.0,0.0,0.0,0.0,0.0,0.0
110.108,73205,1778970858,709535394,imu_link,0.003108510049059987,0.03880735859274864,-0.1742296814918518,-0.983930766582489,0.0024999999441206455,0.0,0.0,0.0,0.0024999999441206455,0.0,0.0,0.0,0.0024999999441206455,0.0,0.0,0.0,0.019999999552965164,0.0,0.0,0.0,0.019999999552965164,0.0,0.0,0.0,0.019999999552965164,0.6727706789970398,-0.152031809091568,9.610325813293457,0.03999999910593033,0.0,0.0,0.0,0.03999999910593033,0.0,0.0,0.0,0.03999999910593033
110.109,109829,110,109000000,base_footprint,-1.9812713562631107e-06,0.0015896500998667257,0.0002010700585094072,0.9999987162889091,0.0,0.0,0.0,0.0,0.0,0.0,0.0,0.0,0.0,-4.897112848844915e-05,-0.00021123923034726985,7.988302802512037e-06,0.0,0.0,0.0,0.0,0.0,0.0,0.0,0.0,0.0,9.889741842382465e-11,3.0843726043780485e-10,7.8897162765295e-12,0.0,0.0,0.0,0.0,0.0,0.0,0.0,0.0,0.0
110.11,109830,110,110000000,base_footprint,-1.9812742673742805e-06,0.0015896500998638598,0.00020107189044402547,0.9999987162885408,0.0,0.0,0.0,0.0,0.0,0.0,0.0,0.0,0.0,-4.897112687905562e-05,-0.0002112392307933501,7.988304723976377e-06,0.0,0.0,0.0,0.0,0.0,0.0,0.0,0.0,0.0,1.0013754348708188e-10,3.121226340698613e-10,8.953734988359308e-12,0.0,0.0,0.0,0.0,0.0,0.0,0.0,0.0,0.0
110.111,109831,110,111000000,base_footprint,-1.9812771784946007e-06,0.0015896500998609944,0.00020107372237876856,0.9999987162881726,0.0,0.0,0.0,0.0,0.0,0.0,0.0,0.0,0.0,-4.897112529510905e-05,-0.00021123923122300597,7.988306640377158e-06,0.0,0.0,0.0,0.0,0.0,0.0,0.0,0.0,0.0,9.983954603223119e-11,3.112631157452378e-10,7.424286608147818e-12,0.0,0.0,0.0,0.0,0.0,0.0,0.0,0.0,0.0
110.112,109832,110,112000000,base_footprint,-1.9812800896104872e-06,0.0015896500998581373,0.00020107555431362435,0.9999987162878042,0.0,0.0,0.0,0.0,0.0,0.0,0.0,0.0,0.0,-4.897112368407356e-05,-0.00021123923163615454,7.988308532567339e-06,0.0,0.0,0.0,0.0,0.0,0.0,0.0,0.0,0.0,9.852412161365144e-11,3.073812462170177e-10,7.446342157052541e-12,0.0,0.0,0.0,0.0,0.0,0.0,0.0,0.0,0.0
110.112,73206,1778970858,714535394,imu_link,0.003108510049059987,0.03880735859274864,-0.1742296814918518,-0.983930766582489,0.0024999999441206455,0.0,0.0,0.0,0.0024999999441206455,0.0,0.0,0.0,0.0024999999441206455,0.0,0.0,0.0,0.019999999552965164,0.0,0.0,0.0,0.019999999552965164,0.0,0.0,0.0,0.019999999552965164,0.6727706789970398,-0.152031809091568,9.610325813293457,0.03999999910593033,0.0,0.0,0.0,0.03999999910593033,0.0,0.0,0.0,0.03999999910593033
110.113,109833,110,113000000,base_footprint,-1.9812830007359164e-06,0.0015896500998552805,0.00020107738624859788,0.9999987162874358,0.0,0.0,0.0,0.0,0.0,0.0,0.0,0.0,0.0,-4.8971122101002095e-05,-0.00021123923206562187,7.988310435068145e-06,0.0,0.0,0.0,0.0,0.0,0.0,0.0,0.0,0.0,9.908933108879125e-11,3.090096076298129e-10,7.040602569569295e-12,0.0,0.0,0.0,0.0,0.0,0.0,0.0,0.0,0.0
110.114,109834,110,114000000,base_footprint,-1.981285911855497e-06,0.0015896500998524216,0.00020107921818369052,0.9999987162870673,0.0,0.0,0.0,0.0,0.0,0.0,0.0,0.0,0.0,-4.897112048700761e-05,-0.00021123923250004832,7.988312339890007e-06,0.0,0.0,0.0,0.0,0.0,0.0,0.0,0.0,0.0,9.922451568168274e-11,3.094326114688023e-10,6.94726100595999e-12,0.0,0.0,0.0,0.0,0.0,0.0,0.0,0.0,0.0
110.115,109835,110,115000000,base_footprint,-1.9812888229818483e-06,0.0015896500998495665,0.00020108105011891182,0.999998716286699,0.0,0.0,0.0,0.0,0.0,0.0,0.0,0.0,0.0,-4.8971118898351115e-05,-0.000211239232923793,7.988314263999784e-06,0.0,0.0,0.0,0.0,0.0,0.0,0.0,0.0,0.0,1.0025136352781434e-10,3.125197276094395e-10,8.138772183105507e-12,0.0,0.0,0.0,0.0,0.0,0.0,0.0,0.0,0.0
110.116,109836,110,116000000,base_footprint,-1.98129173409819e-06,0.0015896500998467057,0.00020108288205424372,0.9999987162863305,0.0,0.0,0.0,0.0,0.0,0.0,0.0,0.0,0.0,-4.897111727607659e-05,-0.00021123923336448786,7.98831615187248e-06,0.0,0.0,0.0,0.0,0.0,0.0,0.0,0.0,0.0,9.832555397991762e-11,3.066985224123643e-10,8.69281927687167e-12,0.0,0.0,0.0,0.0,0.0,0.0,0.0,0.0,0.0
110.117,109837,110,117000000,base_footprint,-1.981294645209568e-06,0.0015896500998438398,0.00020108471398969444,0.9999987162859623,0.0,0.0,0.0,0.0,0.0,0.0,0.0,0.0,0.0,-4.89711156639345e-05,-0.00021123923380646678,7.988318056169122e-06,0.0,0.0,0.0,0.0,0.0,0.0,0.0,0.0,0.0,9.920867605818603e-11,3.0934501507580355e-10,8.711608988046804e-12,0.0,0.0,0.0,0.0,0.0,0.0,0.0,0.0,0.0
110.118,109838,110,118000000,base_footprint,-1.9812975563197156e-06,0.0015896500998409753,0.00020108654592526615,0.9999987162855938,0.0,0.0,0.0,0.0,0.0,0.0,0.0,0.0,0.0,-4.897111405923924e-05,-0.00021123923423287084,7.988319965037838e-06,0.0,0.0,0.0,0.0,0.0,0.0,0.0,0.0,0.0,9.944040602641862e-11,3.100743526252606e-10,9.41700655397823e-12,0.0,0.0,0.0,0.0,0.0,0.0,0.0,0.0,0.0
110.119,109839,110,119000000,base_footprint,-1.9813004674457885e-06,0.001589650099838117,0.00020108837786096152,0.9999987162852255,0.0,0.0,0.0,0.0,0.0,0.0,0.0,0.0,0.0,-4.8971112488889456e-05,-0.00021123923465186633,7.988321879166997e-06,0.0,0.0,0.0,0.0,0.0,0.0,0.0,0.0,0.0,9.969923075994374e-11,3.1087444105656675e-10,5.925810618506698e-12,0.0,0.0,0.0,0.0,0.0,0.0,0.0,0.0,0.0
110.12,109840,110,120000000,base_footprint,-1.981303378567389e-06,0.0015896500998352635,0.0002010902097967668,0.9999987162848573,0.0,0.0,0.0,0.0,0.0,0.0,0.0,0.0,0.0,-4.897111087769642e-05,-0.00021123923507211924,7.988323765675764e-06,0.0,0.0,0.0,0.0,0.0,0.0,0.0,0.0,0.0,9.822163708857139e-11,3.0646065459219775e-10,6.1836843677608665e-12,0.0,0.0,0.0,0.0,0.0,0.0,0.0,0.0,0.0
110.12,73207,1778970858,719535394,imu_link,0.003058268455788493,0.03806591406464577,-0.1742350310087204,-0.983958899974823,0.0024999999441206455,0.0,0.0,0.0,0.0024999999441206455,0.0,0.0,0.0,0.0024999999441206455,0.0,0.0,0.0,0.019999999552965164,0.0,0.0,0.0,0.019999999552965164,0.0,0.0,0.0,0.019999999552965164,0.6476315259933472,-0.16998831927776337,9.630077362060547,0.03999999910593033,0.0,0.0,0.0,0.03999999910593033,0.0,0.0,0.0,0.03999999910593033
110.121,109841,110,121000000,base_footprint,-1.9813062896844185e-06,0.001589650099832404,0.00020109204173269943,0.9999987162844889,0.0,0.0,0.0,0.0,0.0,0.0,0.0,0.0,0.0,-4.8971109266284344e-05,-0.0002112392355145589,7.988325687104907e-06,0.0,0.0,0.0,0.0,0.0,0.0,0.0,0.0,0.0,1.0012631677139599e-10,3.121201773577429e-10,7.1520818109393535e-12,0.0,0.0,0.0,0.0,0.0,0.0,0.0,0.0,0.0
110.123,109842,110,122000000,base_footprint,-1.9813092008160247e-06,0.0015896500998295415,0.00020109387366874253,0.9999987162841203,0.0,0.0,0.0,0.0,0.0,0.0,0.0,0.0,0.0,-4.897110769334949e-05,-0.0002112392359499019,7.98832757521088e-06,0.0,0.0,0.0,0.0,0.0,0.0,0.0,0.0,0.0,9.832644594517793e-11,3.0666135451983e-10,9.437694352806833e-12,0.0,0.0,0.0,0.0,0.0,0.0,0.0,0.0,0.0
110.123,109843,110,123000000,base_footprint,-1.981312111929526e-06,0.00158965009982668,0.00020109570560491424,0.9999987162837519,0.0,0.0,0.0,0.0,0.0,0.0,0.0,0.0,0.0,-4.8971106054715515e-05,-0.00021123923637894618,7.988329498812934e-06,0.0,0.0,0.0,0.0,0.0,0.0,0.0,0.0,0.0,1.0023997614446215e-10,3.1251372740935967e-10,8.87880721324321e-12,0.0,0.0,0.0,0.0,0.0,0.0,0.0,0.0,0.0
110.124,109844,110,124000000,base_footprint,-1.9813150230411518e-06,0.0015896500998238184,0.00020109753754120332,0.9999987162833835,0.0,0.0,0.0,0.0,0.0,0.0,0.0,0.0,0.0,-4.89711044488553e-05,-0.00021123923680994305,7.9883314002738e-06,0.0,0.0,0.0,0.0,0.0,0.0,0.0,0.0,0.0,9.904425546673914e-11,3.088755071762767e-10,8.651092977088328e-12,0.0,0.0,0.0,0.0,0.0,0.0,0.0,0.0,0.0
110.125,109845,110,125000000,base_footprint,-1.9813179341720845e-06,0.001589650099820962,0.00020109936947760776,0.9999987162830152,0.0,0.0,0.0,0.0,0.0,0.0,0.0,0.0,0.0,-4.897110288541703e-05,-0.00021123923723003672,7.988333298032344e-06,0.0,0.0,0.0,0.0,0.0,0.0,0.0,0.0,0.0,9.882021070920416e-11,3.08211169946971e-10,6.690734195464788e-12,0.0,0.0,0.0,0.0,0.0,0.0,0.0,0.0,0.0
110.126,109846,110,126000000,base_footprint,-1.981320845292502e-06,0.001589650099818104,0.00020110120141413187,0.9999987162826468,0.0,0.0,0.0,0.0,0.0,0.0,0.0,0.0,0.0,-4.897110126193746e-05,-0.00021123923766316042,7.988335203925896e-06,0.0,0.0,0.0,0.0,0.0,0.0,0.0,0.0,0.0,9.927794799630896e-11,3.0962085878552745e-10,5.5856777749635455e-12,0.0,0.0,0.0,0.0,0.0,0.0,0.0,0.0,0.0
110.127,109847,110,127000000,base_footprint,-1.98132375641216e-06,0.001589650099815249,0.00020110303335077904,0.9999987162822784,0.0,0.0,0.0,0.0,0.0,0.0,0.0,0.0,0.0,-4.8971099658246244e-05,-0.00021123923808800634,7.988337116811973e-06,0.0,0.0,0.0,0.0,0.0,0.0,0.0,0.0,0.0,9.965474644599938e-11,3.1072377675835e-10,9.346309368750037e-12,0.0,0.0,0.0,0.0,0.0,0.0,0.0,0.0,0.0
110.128,109848,110,128000000,base_footprint,-1.981326667539307e-06,0.0015896500998123899,0.00020110486528754647,0.99999871628191,0.0,0.0,0.0,0.0,0.0,0.0,0.0,0.0,0.0,-4.897109807099363e-05,-0.00021123923852559657,7.98833902427449e-06,0.0,0.0,0.0,0.0,0.0,0.0,0.0,0.0,0.0,9.936469280130984e-11,3.098198751964827e-10,6.805846182950306e-12,0.0,0.0,0.0,0.0,0.0,0.0,0.0,0.0,0.0
110.129,109849,110,129000000,base_footprint,-1.981329578649166e-06,0.0015896500998095375,0.00020110669722443319,0.9999987162815415,0.0,0.0,0.0,0.0,0.0,0.0,0.0,0.0,0.0,-4.897109643408862e-05,-0.00021123923894281952,7.988340929329166e-06,0.0,0.0,0.0,0.0,0.0,0.0,0.0,0.0,0.0,9.922708947036056e-11,3.0950532003376664e-10,8.080798310953904e-12,0.0,0.0,0.0,0.0,0.0,0.0,0.0,0.0,0.0
110.13,109850,110,130000000,base_footprint,-1.981332489760948e-06,0.0015896500998066798,0.00020110852916143494,0.9999987162811731,0.0,0.0,0.0,0.0,0.0,0.0,0.0,0.0,0.0,-4.897109483586885e-05,-0.00021123923938456155,7.98834282616731e-06,0.0,0.0,0.0,0.0,0.0,0.0,0.0,0.0,0.0,9.880502829548035e-11,3.0811497188834864e-10,8.781169124620355e-12,0.0,0.0,0.0,0.0,0.0,0.0,0.0,0.0,0.0
110.131,109851,110,131000000,base_footprint,-1.9813354008686006e-06,0.0015896500998038151,0.00020111036109854403,0.9999987162808047,0.0,0.0,0.0,0.0,0.0,0.0,0.0,0.0,0.0,-4.89710932254612e-05,-0.00021123923982867626,7.988344707543246e-06,0.0,0.0,0.0,0.0,0.0,0.0,0.0,0.0,0.0,9.797381662525828e-11,3.0562782331466834e-10,7.701180920439618e-12,0.0,0.0,0.0,0.0,0.0,0.0,0.0,0.0,0.0
110.133,109852,110,132000000,base_footprint,-1.9813383119942974e-06,0.0015896500998009541,0.00020111219303577948,0.9999987162804364,0.0,0.0,0.0,0.0,0.0,0.0,0.0,0.0,0.0,-4.8971091659341164e-05,-0.00021123924025145374,7.988346627255057e-06,0.0,0.0,0.0,0.0,0.0,0.0,0.0,0.0,0.0,1.0000663529012414e-10,3.1177299582733587e-10,7.27843524989332e-12,0.0,0.0,0.0,0.0,0.0,0.0,0.0,0.0,0.0
110.133,109853,110,133000000,base_footprint,-1.981341223128794e-06,0.0015896500997980925,0.00020111402497312487,0.9999987162800678,0.0,0.0,0.0,0.0,0.0,0.0,0.0,0.0,0.0,-4.897109007478081e-05,-0.0002112392406827151,7.988348514185117e-06,0.0,0.0,0.0,0.0,0.0,0.0,0.0,0.0,0.0,9.825891049631861e-11,3.064884415874778e-10,8.759412676999003e-12,0.0,0.0,0.0,0.0,0.0,0.0,0.0,0.0,0.0
110.134,109854,110,134000000,base_footprint,-1.9813441342438665e-06,0.0015896500997952237,0.00020111585691059015,0.9999987162796995,0.0,0.0,0.0,0.0,0.0,0.0,0.0,0.0,0.0,-4.897108843357133e-05,-0.00021123924112913302,7.988350420274809e-06,0.0,0.0,0.0,0.0,0.0,0.0,0.0,0.0,0.0,9.932214567846401e-11,3.0967967952632994e-10,1.102474924823636e-11,0.0,0.0,0.0,0.0,0.0,0.0,0.0,0.0,0.0
110.135,109855,110,135000000,base_footprint,-1.9813470453643236e-06,0.0015896500997923514,0.00020111768884817062,0.999998716279331,0.0,0.0,0.0,0.0,0.0,0.0,0.0,0.0,0.0,-4.8971086842176905e-05,-0.00021123924156514595,7.988352317575591e-06,0.0,0.0,0.0,0.0,0.0,0.0,0.0,0.0,0.0,9.88108455985525e-11,3.0817953988148485e-10,4.9652543778173155e-12,0.0,0.0,0.0,0.0,0.0,0.0,0.0,0.0,0.0
110.136,109856,110,136000000,base_footprint,-1.9813499564891145e-06,0.0015896500997894854,0.0002011195207858805,0.9999987162789625,0.0,0.0,0.0,0.0,0.0,0.0,0.0,0.0,0.0,-4.8971085248647255e-05,-0.00021123924198300956,7.988354243275715e-06,0.0,0.0,0.0,0.0,0.0,0.0,0.0,0.0,0.0,1.0033501958420117e-10,3.1278496092589815e-10,9.186466152403806e-12,0.0,0.0,0.0,0.0,0.0,0.0,0.0,0.0,0.0
110.137,109857,110,137000000,base_footprint,-1.981352867613007e-06,0.001589650099786625,0.000201121352723711,0.999998716278594,0.0,0.0,0.0,0.0,0.0,0.0,0.0,0.0,0.0,-4.897108364453866e-05,-0.0002112392424022557,7.988356151307353e-06,0.0,0.0,0.0,0.0,0.0,0.0,0.0,0.0,0.0,9.938733488248139e-11,3.0993745054336495e-10,9.057056273362834e-12,0.0,0.0,0.0,0.0,0.0,0.0,0.0,0.0,0.0
110.138,109858,110,138000000,base_footprint,-1.9813557787438394e-06,0.0015896500997837628,0.00020112318466165748,0.9999987162782256,0.0,0.0,0.0,0.0,0.0,0.0,0.0,0.0,0.0,-4.8971082056284276e-05,-0.0002112392428366138,7.988358050035796e-06,0.0,0.0,0.0,0.0,0.0,0.0,0.0,0.0,0.0,9.88826186122961e-11,3.084061823793752e-10,4.097069475700434e-12,0.0,0.0,0.0,0.0,0.0,0.0,0.0,0.0,0.0
110.139,109859,110,139000000,base_footprint,-1.981358689867708e-06,0.001589650099780909,0.0002011250165997237,0.9999987162778573,0.0,0.0,0.0,0.0,0.0,0.0,0.0,0.0,0.0,-4.897108044003467e-05,-0.00021123924325078966,7.988359956032075e-06,0.0,0.0,0.0,0.0,0.0,0.0,0.0,0.0,0.0,9.926386335988948e-11,3.096263760056005e-10,5.758294458961942e-12,0.0,0.0,0.0,0.0,0.0,0.0,0.0,0.0,0.0
110.14,109860,110,140000000,base_footprint,-1.9813616009905557e-06,0.0015896500997780493,0.00020112684853791293,0.9999987162774888,0.0,0.0,0.0,0.0,0.0,0.0,0.0,0.0,0.0,-4.8971078835789346e-05,-0.00021123924369204753,7.988361868883361e-06,0.0,0.0,0.0,0.0,0.0,0.0,0.0,0.0,0.0,9.966727186780074e-11,3.107191406625322e-10,8.737297187743717e-12,0.0,0.0,0.0,0.0,0.0,0.0,0.0,0.0,0.0
110.141,109861,110,141000000,base_footprint,-1.981364512120752e-06,0.0015896500997751957,0.00020112868047622072,0.9999987162771203,0.0,0.0,0.0,0.0,0.0,0.0,0.0,0.0,0.0,-4.897107724829825e-05,-0.00021123924411037056,7.988363772922406e-06,0.0,0.0,0.0,0.0,0.0,0.0,0.0,0.0,0.0,9.916411347911172e-11,3.0926538450815326e-10,7.737400634703132e-12,0.0,0.0,0.0,0.0,0.0,0.0,0.0,0.0,0.0
110.142,109862,110,142000000,base_footprint,-1.9813674232441508e-06,0.0015896500997723455,0.00020113051241464912,0.9999987162767519,0.0,0.0,0.0,0.0,0.0,0.0,0.0,0.0,0.0,-4.897107563239725e-05,-0.00021123924453388576,7.988365680832066e-06,0.0,0.0,0.0,0.0,0.0,0.0,0.0,0.0,0.0,9.938916005925376e-11,3.099359908567623e-10,9.868119098684223e-12,0.0,0.0,0.0,0.0,0.0,0.0,0.0,0.0,0.0
110.143,109863,110,143000000,base_footprint,-1.9813703343624233e-06,0.001589650099769485,0.00020113234435319318,0.9999987162763834,0.0,0.0,0.0,0.0,0.0,0.0,0.0,0.0,0.0,-4.897107401996458e-05,-0.0002112392449853392,7.988367578880245e-06,0.0,0.0,0.0,0.0,0.0,0.0,0.0,0.0,0.0,9.888339629379161e-11,3.0833267022795595e-10,9.109623574604829e-12,0.0,0.0,0.0,0.0,0.0,0.0,0.0,0.0,0.0
110.144,109864,110,144000000,base_footprint,-1.98137324547055e-06,0.0015896500997666246,0.0002011341762918557,0.9999987162760149,0.0,0.0,0.0,0.0,0.0,0.0,0.0,0.0,0.0,-4.8971072397385425e-05,-0.00021123924541494097,7.988369482402753e-06,0.0,0.0,0.0,0.0,0.0,0.0,0.0,0.0,0.0,9.915048095075042e-11,3.0923518190380503e-10,6.780895127637728e-12,0.0,0.0,0.0,0.0,0.0,0.0,0.0,0.0,0.0
110.145,109865,110,145000000,base_footprint,-1.9813761565955447e-06,0.0015896500997637597,0.00020113600823064602,0.9999987162756464,0.0,0.0,0.0,0.0,0.0,0.0,0.0,0.0,0.0,-4.897107082901747e-05,-0.00021123924585459805,7.98837140491538e-06,0.0,0.0,0.0,0.0,0.0,0.0,0.0,0.0,0.0,1.0017051611794775e-10,3.1223012324916936e-10,5.887571611903401e-12,0.0,0.0,0.0,0.0,0.0,0.0,0.0,0.0,0.0
110.145,73208,1778970858,728535394,imu_link,0.0029854930471628904,0.03690161183476448,-0.1742434948682785,-0.9840021133422852,0.0024999999441206455,0.0,0.0,0.0,0.0024999999441206455,0.0,0.0,0.0,0.0024999999441206455,0.0,0.0,0.0,0.019999999552965164,0.0,0.0,0.0,0.019999999552965164,0.0,0.0,0.0,0.019999999552965164,0.6560112833976746,-0.17238251864910126,9.63067626953125,0.03999999910593033,0.0,0.0,0.0,0.03999999910593033,0.0,0.0,0.0,0.03999999910593033
110.146,109866,110,146000000,base_footprint,-1.9813790677327777e-06,0.0015896500997609087,0.00020113784016955198,0.9999987162752779,0.0,0.0,0.0,0.0,0.0,0.0,0.0,0.0,0.0,-4.897106925127507e-05,-0.00021123924625709919,7.9883733031667e-06,0.0,0.0,0.0,0.0,0.0,0.0,0.0,0.0,0.0,9.883224290155601e-11,3.0831264403710814e-10,6.881549827268609e-12,0.0,0.0,0.0,0.0,0.0,0.0,0.0,0.0,0.0
110.147,109867,110,147000000,base_footprint,-1.981381978862084e-06,0.0015896500997580564,0.0002011396721085689,0.9999987162749094,0.0,0.0,0.0,0.0,0.0,0.0,0.0,0.0,0.0,-4.8971067633173424e-05,-0.0002112392466902548,7.988375191678755e-06,0.0,0.0,0.0,0.0,0.0,0.0,0.0,0.0,0.0,9.835345538450211e-11,3.0679604087088486e-10,9.397085511279981e-12,0.0,0.0,0.0,0.0,0.0,0.0,0.0,0.0,0.0
110.148,109868,110,148000000,base_footprint,-1.981384889976965e-06,0.0015896500997551904,0.00020114150404769923,0.999998716274541,0.0,0.0,0.0,0.0,0.0,0.0,0.0,0.0,0.0,-4.8971066002103105e-05,-0.0002112392471480794,7.98837708521834e-06,0.0,0.0,0.0,0.0,0.0,0.0,0.0,0.0,0.0,9.865335084313736e-11,3.07630488345533e-10,1.0098938711698787e-11,0.0,0.0,0.0,0.0,0.0,0.0,0.0,0.0,0.0
110.149,109869,110,149000000,base_footprint,-1.981387801102307e-06,0.0015896500997523279,0.00020114333598695452,0.9999987162741725,0.0,0.0,0.0,0.0,0.0,0.0,0.0,0.0,0.0,-4.897106442087462e-05,-0.00021123924757151909,7.988379002065968e-06,0.0,0.0,0.0,0.0,0.0,0.0,0.0,0.0,0.0,9.986264837739876e-11,3.1133179368498903e-10,9.448042142221374e-12,0.0,0.0,0.0,0.0,0.0,0.0,0.0,0.0,0.0
110.15,109870,110,150000000,base_footprint,-1.981390712217887e-06,0.001589650099749452,0.00020114516792633098,0.999998716273804,0.0,0.0,0.0,0.0,0.0,0.0,0.0,0.0,0.0,-4.897106279895139e-05,-0.00021123924802854478,7.988380911036429e-06,0.0,0.0,0.0,0.0,0.0,0.0,0.0,0.0,0.0,9.947763132787203e-11,3.1011689832535124e-10,8.750893012530582e-12,0.0,0.0,0.0,0.0,0.0,0.0,0.0,0.0,0.0
110.151,109871,110,151000000,base_footprint,-1.981393623347574e-06,0.0015896500997465816,0.0002011469998658222,0.9999987162734355,0.0,0.0,0.0,0.0,0.0,0.0,0.0,0.0,0.0,-4.897106122509165e-05,-0.00021123924844746174,7.98838280751293e-06,0.0,0.0,0.0,0.0,0.0,0.0,0.0,0.0,0.0,9.875070981682139e-11,3.080192019859436e-10,6.341251548874275e-12,0.0,0.0,0.0,0.0,0.0,0.0,0.0,0.0,0.0
110.152,109872,110,152000000,base_footprint,-1.9813965344716065e-06,0.0015896500997437174,0.00020114883180543728,0.999998716273067,0.0,0.0,0.0,0.0,0.0,0.0,0.0,0.0,0.0,-4.897105961146391e-05,-0.0002112392488658078,7.98838472187291e-06,0.0,0.0,0.0,0.0,0.0,0.0,0.0,0.0,0.0,9.97220012654135e-11,3.1097791625832593e-10,7.170143737257696e-12,0.0,0.0,0.0,0.0,0.0,0.0,0.0,0.0,0.0
110.153,109873,110,153000000,base_footprint,-1.9813994455843835e-06,0.001589650099740864,0.00020115066374517534,0.9999987162726985,0.0,0.0,0.0,0.0,0.0,0.0,0.0,0.0,0.0,-4.897105798665753e-05,-0.00021123924927454236,7.988386634343435e-06,0.0,0.0,0.0,0.0,0.0,0.0,0.0,0.0,0.0,9.96075883483126e-11,3.106885005939863e-10,5.5081135559254595e-12,0.0,0.0,0.0,0.0,0.0,0.0,0.0,0.0,0.0
110.154,109874,110,154000000,base_footprint,-1.9814023567046402e-06,0.0015896500997380038,0.00020115249568503798,0.9999987162723301,0.0,0.0,0.0,0.0,0.0,0.0,0.0,0.0,0.0,-4.897105639939496e-05,-0.0002112392497185268,7.98838855039534e-06,0.0,0.0,0.0,0.0,0.0,0.0,0.0,0.0,0.0,9.983170110757201e-11,3.1121176016675246e-10,6.256132095542072e-12,0.0,0.0,0.0,0.0,0.0,0.0,0.0,0.0,0.0
110.155,109875,110,155000000,base_footprint,-1.98140526783983e-06,0.0015896500997351541,0.00020115432762500494,0.9999987162719616,0.0,0.0,0.0,0.0,0.0,0.0,0.0,0.0,0.0,-4.8971054827231936e-05,-0.00021123925012801696,7.988390426021767e-06,0.0,0.0,0.0,0.0,0.0,0.0,0.0,0.0,0.0,9.762424174437262e-11,3.0463788592024017e-10,8.123057459360341e-12,0.0,0.0,0.0,0.0,0.0,0.0,0.0,0.0,0.0
110.156,109876,110,156000000,base_footprint,-1.98140817896728e-06,0.001589650099732299,0.00020115615956508925,0.9999987162715931,0.0,0.0,0.0,0.0,0.0,0.0,0.0,0.0,0.0,-4.8971053209441454e-05,-0.00021123925056959952,7.98839232742577e-06,0.0,0.0,0.0,0.0,0.0,0.0,0.0,0.0,0.0,9.905709923189708e-11,3.0888487674394724e-10,9.87712820776088e-12,0.0,0.0,0.0,0.0,0.0,0.0,0.0,0.0,0.0
110.157,109877,110,157000000,base_footprint,-1.9814110900952882e-06,0.0015896500997294343,0.00020115799150530943,0.9999987162712246,0.0,0.0,0.0,0.0,0.0,0.0,0.0,0.0,0.0,-4.8971051608213474e-05,-0.0002112392510188909,7.988394266010096e-06,0.0,0.0,0.0,0.0,0.0,0.0,0.0,0.0,0.0,1.0106639267235838e-10,3.1488448006417965e-10,1.0713223083550591e-11,0.0,0.0,0.0,0.0,0.0,0.0,0.0,0.0,0.0
110.158,109878,110,158000000,base_footprint,-1.9814140012249716e-06,0.001589650099726563,0.00020115982344564532,0.9999987162708561,0.0,0.0,0.0,0.0,0.0,0.0,0.0,0.0,0.0,-4.897105000933334e-05,-0.00021123925146283623,7.988396164211208e-06,0.0,0.0,0.0,0.0,0.0,0.0,0.0,0.0,0.0,9.887436900966519e-11,3.083364208179472e-10,6.631851470144162e-12,0.0,0.0,0.0,0.0,0.0,0.0,0.0,0.0,0.0
110.159,109879,110,159000000,base_footprint,-1.981416912344253e-06,0.0015896500997236974,0.00020116165538609408,0.9999987162704874,0.0,0.0,0.0,0.0,0.0,0.0,0.0,0.0,0.0,-4.897104838626725e-05,-0.0002112392518802777,7.988398056626888e-06,0.0,0.0,0.0,0.0,0.0,0.0,0.0,0.0,0.0,9.853823558751439e-11,3.0743633124065833e-10,6.2122517129546804e-12,0.0,0.0,0.0,0.0,0.0,0.0,0.0,0.0,0.0
110.16,109880,110,160000000,base_footprint,-1.9814198234774443e-06,0.0015896500997208348,0.0002011634873266619,0.9999987162701189,0.0,0.0,0.0,0.0,0.0,0.0,0.0,0.0,0.0,-4.8971046812017556e-05,-0.00021123925230561618,7.988399961661384e-06,0.0,0.0,0.0,0.0,0.0,0.0,0.0,0.0,0.0,9.922363726335875e-11,3.094067925266023e-10,8.226682991768247e-12,0.0,0.0,0.0,0.0,0.0,0.0,0.0,0.0,0.0
110.161,109881,110,161000000,base_footprint,-1.981422734608839e-06,0.001589650099717978,0.00020116531926734157,0.9999987162697505,0.0,0.0,0.0,0.0,0.0,0.0,0.0,0.0,0.0,-4.8971045206213504e-05,-0.00021123925272477714,7.988401852043787e-06,0.0,0.0,0.0,0.0,0.0,0.0,0.0,0.0,0.0,9.843111973234144e-11,3.070802574902824e-10,7.1996362167890135e-12,0.0,0.0,0.0,0.0,0.0,0.0,0.0,0.0,0.0
110.162,109882,110,162000000,base_footprint,-1.981425645725039e-06,0.001589650099715126,0.0002011671512081517,0.999998716269382,0.0,0.0,0.0,0.0,0.0,0.0,0.0,0.0,0.0,-4.8971043573382555e-05,-0.00021123925314515244,7.988403779455176e-06,0.0,0.0,0.0,0.0,0.0,0.0,0.0,0.0,0.0,1.0042647624479616e-10,3.1312219148679763e-10,6.142538581396433e-12,0.0,0.0,0.0,0.0,0.0,0.0,0.0,0.0,0.0
110.163,109883,110,163000000,base_footprint,-1.9814285568518293e-06,0.0015896500997122777,0.000201168983149075,0.9999987162690134,0.0,0.0,0.0,0.0,0.0,0.0,0.0,0.0,0.0,-4.8971041992570746e-05,-0.00021123925356814925,7.988405672777497e-06,0.0,0.0,0.0,0.0,0.0,0.0,0.0,0.0,0.0,9.858654076657176e-11,3.075184833419029e-10,6.3822912396066155e-12,0.0,0.0,0.0,0.0,0.0,0.0,0.0,0.0,0.0
110.164,109884,110,164000000,base_footprint,-1.9814314679753657e-06,0.0015896500997094173,0.00020117081509011238,0.9999987162686448,0.0,0.0,0.0,0.0,0.0,0.0,0.0,0.0,0.0,-4.897104038384291e-05,-0.00021123925402237074,7.988407567654128e-06,0.0,0.0,0.0,0.0,0.0,0.0,0.0,0.0,0.0,9.872089210970896e-11,3.078131178958543e-10,1.1051070751650252e-11,0.0,0.0,0.0,0.0,0.0,0.0,0.0,0.0,0.0
110.165,109885,110,165000000,base_footprint,-1.9814343791042093e-06,0.001589650099706554,0.00020117264703127316,0.9999987162682763,0.0,0.0,0.0,0.0,0.0,0.0,0.0,0.0,0.0,-4.897103879218595e-05,-0.00021123925445937827,7.98840948129471e-06,0.0,0.0,0.0,0.0,0.0,0.0,0.0,0.0,0.0,9.970270143013832e-11,3.108279162245606e-10,8.580746343468867e-12,0.0,0.0,0.0,0.0,0.0,0.0,0.0,0.0,0.0
110.166,109886,110,166000000,base_footprint,-1.981437290229085e-06,0.0015896500997036895,0.0002011744789725581,0.9999987162679078,0.0,0.0,0.0,0.0,0.0,0.0,0.0,0.0,0.0,-4.8971037181949694e-05,-0.00021123925489172015,7.988411396332755e-06,0.0,0.0,0.0,0.0,0.0,0.0,0.0,0.0,0.0,9.977410379733951e-11,3.110824612293922e-10,7.770520173817269e-12,0.0,0.0,0.0,0.0,0.0,0.0,0.0,0.0,0.0
110.167,109887,110,167000000,base_footprint,-1.9814402013570407e-06,0.0015896500997008274,0.00020117631091396725,0.9999987162675392,0.0,0.0,0.0,0.0,0.0,0.0,0.0,0.0,0.0,-4.897103558587489e-05,-0.000211239255317229,7.988413311600064e-06,0.0,0.0,0.0,0.0,0.0,0.0,0.0,0.0,0.0,9.978267095589145e-11,3.1109807869304023e-10,9.516121390715082e-12,0.0,0.0,0.0,0.0,0.0,0.0,0.0,0.0,0.0
110.168,109888,110,168000000,base_footprint,-1.981443112493769e-06,0.0015896500996979645,0.00020117814285548443,0.9999987162671706,0.0,0.0,0.0,0.0,0.0,0.0,0.0,0.0,0.0,-4.897103400126426e-05,-0.00021123925574975083,7.988415194524444e-06,0.0,0.0,0.0,0.0,0.0,0.0,0.0,0.0,0.0,9.803044703033469e-11,3.0583937146738655e-10,4.350913321686147e-12,0.0,0.0,0.0,0.0,0.0,0.0,0.0,0.0,0.0
110.169,109889,110,169000000,base_footprint,-1.9814460236363784e-06,0.0015896500996951078,0.00020117997479712202,0.9999987162668023,0.0,0.0,0.0,0.0,0.0,0.0,0.0,0.0,0.0,-4.8971032410781865e-05,-0.000211239256168088,7.988417102039624e-06,0.0,0.0,0.0,0.0,0.0,0.0,0.0,0.0,0.0,9.934419046324598e-11,3.098336168187798e-10,5.552519675373692e-12,0.0,0.0,0.0,0.0,0.0,0.0,0.0,0.0,0.0
110.17,109890,110,170000000,base_footprint,-1.981448934768898e-06,0.00158965009969225,0.0002011818067388892,0.9999987162664337,0.0,0.0,0.0,0.0,0.0,0.0,0.0,0.0,0.0,-4.897103078823133e-05,-0.00021123925659985286,7.988419027927559e-06,0.0,0.0,0.0,0.0,0.0,0.0,0.0,0.0,0.0,1.0036395217879683e-10,3.1285945285880084e-10,9.13072674214271e-12,0.0,0.0,0.0,0.0,0.0,0.0,0.0,0.0,0.0
110.171,109891,110,171000000,base_footprint,-1.9814518458874713e-06,0.00158965009968939,0.0002011836386807795,0.9999987162660651,0.0,0.0,0.0,0.0,0.0,0.0,0.0,0.0,0.0,-4.897102915809363e-05,-0.00021123925703516423,7.988420940830992e-06,0.0,0.0,0.0,0.0,0.0,0.0,0.0,0.0,0.0,9.967661666052494e-11,3.107666293683702e-10,1.1144160700492603e-11,0.0,0.0,0.0,0.0,0.0,0.0,0.0,0.0,0.0
110.172,109892,110,172000000,base_footprint,-1.9814547570120013e-06,0.001589650099686529,0.0002011854706227821,0.9999987162656965,0.0,0.0,0.0,0.0,0.0,0.0,0.0,0.0,0.0,-4.89710275678333e-05,-0.0002112392574670436,7.988422832275778e-06,0.0,0.0,0.0,0.0,0.0,0.0,0.0,0.0,0.0,9.849976767454926e-11,3.072289459285089e-10,7.710634700583207e-12,0.0,0.0,0.0,0.0,0.0,0.0,0.0,0.0,0.0
110.173,109893,110,173000000,base_footprint,-1.9814576681460833e-06,0.0015896500996836745,0.00020118730256489357,0.9999987162653279,0.0,0.0,0.0,0.0,0.0,0.0,0.0,0.0,0.0,-4.8971025984834085e-05,-0.00021123925788460218,7.988424716904226e-06,0.0,0.0,0.0,0.0,0.0,0.0,0.0,0.0,0.0,9.81152910739225e-11,3.0611332527354e-10,7.119939034812833e-12,0.0,0.0,0.0,0.0,0.0,0.0,0.0,0.0,0.0
110.174,109894,110,174000000,base_footprint,-1.9814605792788664e-06,0.0015896500996808117,0.00020118913450712248,0.9999987162649593,0.0,0.0,0.0,0.0,0.0,0.0,0.0,0.0,0.0,-4.8971024380031315e-05,-0.00021123925833157285,7.988426618568912e-06,0.0,0.0,0.0,0.0,0.0,0.0,0.0,0.0,0.0,9.906658270848625e-11,3.089072692242828e-10,7.42904510259509e-12,0.0,0.0,0.0,0.0,0.0,0.0,0.0,0.0,0.0
110.175,109895,110,175000000,base_footprint,-1.981463490403134e-06,0.0015896500996779481,0.00020119096644948507,0.9999987162645907,0.0,0.0,0.0,0.0,0.0,0.0,0.0,0.0,0.0,-4.897102276057582e-05,-0.00021123925876373006,7.988428552535852e-06,0.0,0.0,0.0,0.0,0.0,0.0,0.0,0.0,0.0,1.0079513219386713e-10,3.141639795878567e-10,8.03156928772286e-12,0.0,0.0,0.0,0.0,0.0,0.0,0.0,0.0,0.0
110.176,109896,110,176000000,base_footprint,-1.9814664015338925e-06,0.0015896500996750893,0.00020119279839196094,0.9999987162642221,0.0,0.0,0.0,0.0,0.0,0.0,0.0,0.0,0.0,-4.897102117142172e-05,-0.00021123925918446415,7.988430445946096e-06,0.0,0.0,0.0,0.0,0.0,0.0,0.0,0.0,0.0,9.859052600228026e-11,3.0754537729880204e-10,6.404931562513471e-12,0.0,0.0,0.0,0.0,0.0,0.0,0.0,0.0,0.0
110.177,109897,110,177000000,base_footprint,-1.9814693126753784e-06,0.001589650099672236,0.00020119463033455983,0.9999987162638536,0.0,0.0,0.0,0.0,0.0,0.0,0.0,0.0,0.0,-4.897101959063236e-05,-0.00021123925960417732,7.98843235888872e-06,0.0,0.0,0.0,0.0,0.0,0.0,0.0,0.0,0.0,9.96434253510959e-11,3.106982210392014e-10,7.801207092233173e-12,0.0,0.0,0.0,0.0,0.0,0.0,0.0,0.0,0.0
110.178,109898,110,178000000,base_footprint,-1.981472223797613e-06,0.0015896500996693788,0.00020119646227726728,0.9999987162634851,0.0,0.0,0.0,0.0,0.0,0.0,0.0,0.0,0.0,-4.897101794985411e-05,-0.00021123926004236763,7.988434242487431e-06,0.0,0.0,0.0,0.0,0.0,0.0,0.0,0.0,0.0,9.810240028367124e-11,3.060342847829794e-10,1.0805717172725318e-11,0.0,0.0,0.0,0.0,0.0,0.0,0.0,0.0,0.0
110.178,73209,1778970858,808535394,imu_link,-0.003576818620786071,0.03317500650882721,-0.17403826117515564,-0.984169065952301,0.0024999999441206455,0.0,0.0,0.0,0.0024999999441206455,0.0,0.0,0.0,0.0024999999441206455,0.0,0.0,0.0,0.019999999552965164,0.0,0.0,0.0,0.019999999552965164,0.0,0.0,0.0,0.019999999552965164,0.6805518269538879,-0.1646013706922531,9.555258750915527,0.03999999910593033,0.0,0.0,0.0,0.03999999910593033,0.0,0.0,0.0,0.03999999910593033
110.179,109899,110,179000000,base_footprint,-1.9814751349268796e-06,0.001589650099666515,0.00020119829422010358,0.9999987162631165,0.0,0.0,0.0,0.0,0.0,0.0,0.0,0.0,0.0,-4.897101636177738e-05,-0.0002112392604854676,7.988436167178533e-06,0.0,0.0,0.0,0.0,0.0,0.0,0.0,0.0,0.0,1.003033525419194e-10,3.1261330193690403e-10,8.731810118107954e-12,0.0,0.0,0.0,0.0,0.0,0.0,0.0,0.0,0.0
110.18,109900,110,180000000,base_footprint,-1.9814780460589215e-06,0.001589650099663649,0.0002012001261630581,0.9999987162627478,0.0,0.0,0.0,0.0,0.0,0.0,0.0,0.0,0.0,-4.897101476504924e-05,-0.0002112392609197501,7.988438070437954e-06,0.0,0.0,0.0,0.0,0.0,0.0,0.0,0.0,0.0,9.913521848711926e-11,3.0915312666950693e-10,6.354626674750329e-12,0.0,0.0,0.0,0.0,0.0,0.0,0.0,0.0,0.0
110.181,109901,110,181000000,base_footprint,-1.981480957185769e-06,0.0015896500996607865,0.00020120195810613664,0.9999987162623794,0.0,0.0,0.0,0.0,0.0,0.0,0.0,0.0,0.0,-4.897101315235835e-05,-0.00021123926134432376,7.988439985068063e-06,0.0,0.0,0.0,0.0,0.0,0.0,0.0,0.0,0.0,9.974220258301026e-11,3.11020216335921e-10,7.039059492949263e-12,0.0,0.0,0.0,0.0,0.0,0.0,0.0,0.0,0.0
110.182,109902,110,182000000,base_footprint,-1.98148386832324e-06,0.0015896500996579292,0.0002012037900493265,0.9999987162620108,0.0,0.0,0.0,0.0,0.0,0.0,0.0,0.0,0.0,-4.8971011571467745e-05,-0.0002112392617639162,7.988441874655745e-06,0.0,0.0,0.0,0.0,0.0,0.0,0.0,0.0,0.0,9.838411157627983e-11,3.069134943722194e-10,7.073889525541339e-12,0.0,0.0,0.0,0.0,0.0,0.0,0.0,0.0,0.0
110.182,73210,1778970858,811535394,imu_link,-0.0029016679618507624,0.03330206125974655,-0.1740604043006897,-0.9841629862785339,0.0024999999441206455,0.0,0.0,0.0,0.0024999999441206455,0.0,0.0,0.0,0.0024999999441206455,0.0,0.0,0.0,0.019999999552965164,0.0,0.0,0.0,0.019999999552965164,0.0,0.0,0.0,0.019999999552965164,0.6404489278793335,-0.166995570063591,9.582193374633789,0.03999999910593033,0.0,0.0,0.0,0.03999999910593033,0.0,0.0,0.0,0.03999999910593033
110.183,109903,110,183000000,base_footprint,-1.981486779454122e-06,0.0015896500996550676,0.0002012056219926306,0.9999987162616422,0.0,0.0,0.0,0.0,0.0,0.0,0.0,0.0,0.0,-4.897100995601068e-05,-0.00021123926220296174,7.988443769771109e-06,0.0,0.0,0.0,0.0,0.0,0.0,0.0,0.0,0.0,9.870563599037872e-11,3.078621273080937e-10,6.7107782314816705e-12,0.0,0.0,0.0,0.0,0.0,0.0,0.0,0.0,0.0
110.184,109904,110,184000000,base_footprint,-1.9814896905917343e-06,0.0015896500996522066,0.00020120745393606123,0.9999987162612736,0.0,0.0,0.0,0.0,0.0,0.0,0.0,0.0,0.0,-4.897100836731089e-05,-0.00021123926263186997,7.988445689769345e-06,0.0,0.0,0.0,0.0,0.0,0.0,0.0,0.0,0.0,1.0004470021784737e-10,3.118536972923062e-10,1.1255404178857212e-11,0.0,0.0,0.0,0.0,0.0,0.0,0.0,0.0,0.0
110.185,109905,110,185000000,base_footprint,-1.9814926017141247e-06,0.00158965009964935,0.0002012092858796121,0.999998716260905,0.0,0.0,0.0,0.0,0.0,0.0,0.0,0.0,0.0,-4.8971006734492645e-05,-0.00021123926305334685,7.988447596786678e-06,0.0,0.0,0.0,0.0,0.0,0.0,0.0,0.0,0.0,9.933060725805368e-11,3.098170540488494e-10,6.306608972156307e-12,0.0,0.0,0.0,0.0,0.0,0.0,0.0,0.0,0.0
110.186,109906,110,186000000,base_footprint,-1.981495512844455e-06,0.0015896500996464935,0.00020121111782328262,0.9999987162605364,0.0,0.0,0.0,0.0,0.0,0.0,0.0,0.0,0.0,-4.8971005148219446e-05,-0.00021123926348338222,7.988449502964988e-06,0.0,0.0,0.0,0.0,0.0,0.0,0.0,0.0,0.0,9.928787434529208e-11,3.0961024742564995e-10,6.87388125184883e-12,0.0,0.0,0.0,0.0,0.0,0.0,0.0,0.0,0.0
110.187,109907,110,187000000,base_footprint,-1.981498423982584e-06,0.0015896500996436364,0.00020121294976706484,0.9999987162601677,0.0,0.0,0.0,0.0,0.0,0.0,0.0,0.0,0.0,-4.8971003561662164e-05,-0.00021123926391463475,7.988451393273048e-06,0.0,0.0,0.0,0.0,0.0,0.0,0.0,0.0,0.0,9.84323119873063e-11,3.070389659704639e-10,6.097576102916942e-12,0.0,0.0,0.0,0.0,0.0,0.0,0.0,0.0,0.0
110.188,109908,110,188000000,base_footprint,-1.981501335104237e-06,0.0015896500996407756,0.00020121478171097315,0.999998716259799,0.0,0.0,0.0,0.0,0.0,0.0,0.0,0.0,0.0,-4.89710019263305e-05,-0.00021123926435267224,7.988453312036605e-06,0.0,0.0,0.0,0.0,0.0,0.0,0.0,0.0,0.0,9.999613576793177e-11,3.117246224670286e-10,1.1497737267755852e-11,0.0,0.0,0.0,0.0,0.0,0.0,0.0,0.0,0.0
110.188,109909,110,189000000,base_footprint,-1.9815042462423835e-06,0.0015896500996379116,0.00020121661365500305,0.9999987162594304,0.0,0.0,0.0,0.0,0.0,0.0,0.0,0.0,0.0,-4.8971000357163615e-05,-0.0002112392647899415,7.988455222259658e-06,0.0,0.0,0.0,0.0,0.0,0.0,0.0,0.0,0.0,9.951234716438627e-11,3.102396714697248e-10,7.63755817495855e-12,0.0,0.0,0.0,0.0,0.0,0.0,0.0,0.0,0.0
110.188,73211,1778970858,816535394,imu_link,-0.002433739136904478,0.03347720950841904,-0.17407545447349548,-0.9841556549072266,0.0024999999441206455,0.0,0.0,0.0,0.0024999999441206455,0.0,0.0,0.0,0.0024999999441206455,0.0,0.0,0.0,0.019999999552965164,0.0,0.0,0.0,0.019999999552965164,0.0,0.0,0.0,0.019999999552965164,0.6643909811973572,-0.1801636815071106,9.61571216583252,0.03999999910593033,0.0,0.0,0.0,0.03999999910593033,0.0,0.0,0.0,0.03999999910593033
110.191,109910,110,190000000,base_footprint,-1.9815071573916244e-06,0.0015896500996350495,0.000201218445599144,0.9999987162590618,0.0,0.0,0.0,0.0,0.0,0.0,0.0,0.0,0.0,-4.897099877719674e-05,-0.00021123926521648726,7.988457111237605e-06,0.0,0.0,0.0,0.0,0.0,0.0,0.0,0.0,0.0,9.835832348050074e-11,3.0681334949058333e-10,7.174593192695254e-12,0.0,0.0,0.0,0.0,0.0,0.0,0.0,0.0,0.0
110.191,109911,110,191000000,base_footprint,-1.981510068518752e-06,0.001589650099632184,0.00020122027754339116,0.9999987162586932,0.0,0.0,0.0,0.0,0.0,0.0,0.0,0.0,0.0,-4.8970997130676314e-05,-0.00021123926565388726,7.98845899009271e-06,0.0,0.0,0.0,0.0,0.0,0.0,0.0,0.0,0.0,9.784548940862786e-11,3.052745007279378e-10,1.0341866352265736e-11,0.0,0.0,0.0,0.0,0.0,0.0,0.0,0.0,0.0
110.192,109912,110,192000000,base_footprint,-1.981512979653925e-06,0.0015896500996293173,0.00020122210948776267,0.9999987162583246,0.0,0.0,0.0,0.0,0.0,0.0,0.0,0.0,0.0,-4.897099554465853e-05,-0.00021123926608638145,7.98846090572192e-06,0.0,0.0,0.0,0.0,0.0,0.0,0.0,0.0,0.0,9.979537284627768e-11,3.111417473762444e-10,5.8925367694959224e-12,0.0,0.0,0.0,0.0,0.0,0.0,0.0,0.0,0.0
110.193,109913,110,193000000,base_footprint,-1.981515890778981e-06,0.0015896500996264577,0.0002012239414322602,0.999998716257956,0.0,0.0,0.0,0.0,0.0,0.0,0.0,0.0,0.0,-4.897099392198949e-05,-0.00021123926650267797,7.988462824281362e-06,0.0,0.0,0.0,0.0,0.0,0.0,0.0,0.0,0.0,9.99428386705286e-11,3.1167188424147997e-10,5.598739881932824e-12,0.0,0.0,0.0,0.0,0.0,0.0,0.0,0.0,0.0
110.194,109914,110,194000000,base_footprint,-1.9815188019047997e-06,0.0015896500996235975,0.0002012257733768846,0.9999987162575874,0.0,0.0,0.0,0.0,0.0,0.0,0.0,0.0,0.0,-4.897099232130438e-05,-0.0002112392669338785,7.988464744862842e-06,0.0,0.0,0.0,0.0,0.0,0.0,0.0,0.0,0.0,1.0007094248508526e-10,3.1196623579213534e-10,8.184817016266288e-12,0.0,0.0,0.0,0.0,0.0,0.0,0.0,0.0,0.0
110.195,109915,110,195000000,base_footprint,-1.9815217130464774e-06,0.001589650099620736,0.00020122760532161998,0.9999987162572187,0.0,0.0,0.0,0.0,0.0,0.0,0.0,0.0,0.0,-4.8970990750915106e-05,-0.00021123926736655338,7.988466633888916e-06,0.0,0.0,0.0,0.0,0.0,0.0,0.0,0.0,0.0,9.836758332942217e-11,3.068064819941105e-10,7.813582204139265e-12,0.0,0.0,0.0,0.0,0.0,0.0,0.0,0.0,0.0
110.196,109916,110,196000000,base_footprint,-1.9815246241788937e-06,0.0015896500996178777,0.00020122943726647865,0.99999871625685,0.0,0.0,0.0,0.0,0.0,0.0,0.0,0.0,0.0,-4.897098913000856e-05,-0.00021123926779076084,7.988468547024015e-06,0.0,0.0,0.0,0.0,0.0,0.0,0.0,0.0,0.0,9.966040052138385e-11,3.107904917226519e-10,6.32843271788758e-12,0.0,0.0,0.0,0.0,0.0,0.0,0.0,0.0,0.0
110.197,109917,110,197000000,base_footprint,-1.9815275353108662e-06,0.0015896500996150254,0.0002012312692114442,0.9999987162564814,0.0,0.0,0.0,0.0,0.0,0.0,0.0,0.0,0.0,-4.897098752711164e-05,-0.00021123926820977137,7.988470427522353e-06,0.0,0.0,0.0,0.0,0.0,0.0,0.0,0.0,0.0,9.790552832275217e-11,3.054742309616986e-10,9.513800671299091e-12,0.0,0.0,0.0,0.0,0.0,0.0,0.0,0.0,0.0
110.198,109918,110,198000000,base_footprint,-1.9815304464456182e-06,0.0015896500996121583,0.00020123310115653526,0.9999987162561128,0.0,0.0,0.0,0.0,0.0,0.0,0.0,0.0,0.0,-4.897098593033557e-05,-0.00021123926866949223,7.988472345474176e-06,0.0,0.0,0.0,0.0,0.0,0.0,0.0,0.0,0.0,9.996203251955037e-11,3.115344520060041e-10,9.77314320928921e-12,0.0,0.0,0.0,0.0,0.0,0.0,0.0,0.0,0.0
110.198,73212,1778970858,823535394,imu_link,-0.0017126514576375484,0.03364580124616623,-0.174098938703537,-0.9841473698616028,0.0024999999441206455,0.0,0.0,0.0,0.0024999999441206455,0.0,0.0,0.0,0.0024999999441206455,0.0,0.0,0.0,0.019999999552965164,0.0,0.0,0.0,0.019999999552965164,0.0,0.0,0.0,0.019999999552965164,0.6470329761505127,-0.16819266974925995,9.588777542114258,0.03999999910593033,0.0,0.0,0.0,0.03999999910593033,0.0,0.0,0.0,0.03999999910593033
110.199,109919,110,199000000,base_footprint,-1.981533357582547e-06,0.0015896500996092939,0.00020123493310174423,0.9999987162557441,0.0,0.0,0.0,0.0,0.0,0.0,0.0,0.0,0.0,-4.897098433245562e-05,-0.0002112392690946013,7.988474248026399e-06,0.0,0.0,0.0,0.0,0.0,0.0,0.0,0.0,0.0,9.909011818838473e-11,3.090402022437231e-10,6.966859944001187e-12,0.0,0.0,0.0,0.0,0.0,0.0,0.0,0.0,0.0
110.2,109920,110,200000000,base_footprint,-1.981536268722402e-06,0.0015896500996064385,0.00020123676504707252,0.9999987162553754,0.0,0.0,0.0,0.0,0.0,0.0,0.0,0.0,0.0,-4.8970982736051235e-05,-0.00021123926950657513,7.988476153474795e-06,0.0,0.0,0.0,0.0,0.0,0.0,0.0,0.0,0.0,9.922790578096974e-11,3.095074427702579e-10,5.5790405033370044e-12,0.0,0.0,0.0,0.0,0.0,0.0,0.0,0.0,0.0
110.201,109921,110,201000000,base_footprint,-1.981539179854839e-06,0.0015896500996035847,0.00020123859699251268,0.9999987162550067,0.0,0.0,0.0,0.0,0.0,0.0,0.0,0.0,0.0,-4.897098111904777e-05,-0.00021123926993409334,7.988478043826606e-06,0.0,0.0,0.0,0.0,0.0,0.0,0.0,0.0,0.0,9.84440390916009e-11,3.0709251882131625e-10,8.646666567109075e-12,0.0,0.0,0.0,0.0,0.0,0.0,0.0,0.0,0.0
110.202,109922,110,202000000,base_footprint,-1.9815420909757066e-06,0.001589650099600729,0.00020124042893807833,0.999998716254638,0.0,0.0,0.0,0.0,0.0,0.0,0.0,0.0,0.0,-4.8970979493604606e-05,-0.00021123927036796516,7.98847996140798e-06,0.0,0.0,0.0,0.0,0.0,0.0,0.0,0.0,0.0,9.991476365381043e-11,3.1151783276234254e-10,7.72038024591659e-12,0.0,0.0,0.0,0.0,0.0,0.0,0.0,0.0,0.0
110.202,73213,1778970858,828535394,imu_link,-0.0017126514576375484,0.03364580124616623,-0.174098938703537,-0.9841473698616028,0.0024999999441206455,0.0,0.0,0.0,0.0024999999441206455,0.0,0.0,0.0,0.0024999999441206455,0.0,0.0,0.0,0.019999999552965164,0.0,0.0,0.0,0.019999999552965164,0.0,0.0,0.0,0.019999999552965164,0.6470329761505127,-0.16819266974925995,9.588777542114258,0.03999999910593033,0.0,0.0,0.0,0.03999999910593033,0.0,0.0,0.0,0.03999999910593033
110.203,109923,110,203000000,base_footprint,-1.981545002107088e-06,0.001589650099597868,0.000201242260883773,0.9999987162542695,0.0,0.0,0.0,0.0,0.0,0.0,0.0,0.0,0.0,-4.897097791240347e-05,-0.0002112392708100625,7.988481886251843e-06,0.0,0.0,0.0,0.0,0.0,0.0,0.0,0.0,0.0,1.0030469869617078e-10,3.1262732196818196e-10,7.168012332052516e-12,0.0,0.0,0.0,0.0,0.0,0.0,0.0,0.0,0.0
110.204,109924,110,204000000,base_footprint,-1.98154791324665e-06,0.001589650099595008,0.00020124409282958573,0.9999987162539008,0.0,0.0,0.0,0.0,0.0,0.0,0.0,0.0,0.0,-4.897097632651481e-05,-0.0002112392712378585,7.988483789424852e-06,0.0,0.0,0.0,0.0,0.0,0.0,0.0,0.0,0.0,9.913494230894296e-11,3.0912253465894964e-10,1.0344288149098485e-11,0.0,0.0,0.0,0.0,0.0,0.0,0.0,0.0,0.0
110.205,109925,110,205000000,base_footprint,-1.9815508243868617e-06,0.0015896500995921435,0.00020124592477551876,0.9999987162535321,0.0,0.0,0.0,0.0,0.0,0.0,0.0,0.0,0.0,-4.8970974725549386e-05,-0.0002112392716771475,7.988485696830052e-06,0.0,0.0,0.0,0.0,0.0,0.0,0.0,0.0,0.0,9.937376393544118e-11,3.098315111543257e-10,9.447936191574328e-12,0.0,0.0,0.0,0.0,0.0,0.0,0.0,0.0,0.0
110.206,109926,110,206000000,base_footprint,-1.9815537355153613e-06,0.0015896500995892823,0.0002012477567215669,0.9999987162531634,0.0,0.0,0.0,0.0,0.0,0.0,0.0,0.0,0.0,-4.897097309983157e-05,-0.0002112392721008232,7.988487593685455e-06,0.0,0.0,0.0,0.0,0.0,0.0,0.0,0.0,0.0,9.878647967817478e-11,3.08159641974816e-10,6.977302597727369e-12,0.0,0.0,0.0,0.0,0.0,0.0,0.0,0.0,0.0
110.207,109927,110,207000000,base_footprint,-1.981556646650345e-06,0.001589650099586417,0.00020124958866773736,0.9999987162527947,0.0,0.0,0.0,0.0,0.0,0.0,0.0,0.0,0.0,-4.897097151062287e-05,-0.00021123927253950515,7.988489505101489e-06,0.0,0.0,0.0,0.0,0.0,0.0,0.0,0.0,0.0,9.958129493227155e-11,3.1046368969203154e-10,7.699591720497957e-12,0.0,0.0,0.0,0.0,0.0,0.0,0.0,0.0,0.0
110.208,109928,110,208000000,base_footprint,-1.9815595577950102e-06,0.0015896500995835556,0.00020125142061402378,0.9999987162524262,0.0,0.0,0.0,0.0,0.0,0.0,0.0,0.0,0.0,-4.8970969927802436e-05,-0.00021123927296294234,7.988491403880526e-06,0.0,0.0,0.0,0.0,0.0,0.0,0.0,0.0,0.0,9.888349688549523e-11,3.084059405867527e-10,7.256596609800951e-12,0.0,0.0,0.0,0.0,0.0,0.0,0.0,0.0,0.0
110.208,73214,1778970858,833535394,imu_link,-0.0010123505489900708,0.03390059992671013,-0.17412124574184418,-0.984135627746582,0.0024999999441206455,0.0,0.0,0.0,0.0024999999441206455,0.0,0.0,0.0,0.0024999999441206455,0.0,0.0,0.0,0.019999999552965164,0.0,0.0,0.0,0.019999999552965164,0.0,0.0,0.0,0.019999999552965164,0.6536170244216919,-0.15322890877723694,9.566631317138672,0.03999999910593033,0.0,0.0,0.0,0.03999999910593033,0.0,0.0,0.0,0.03999999910593033
110.209,109929,110,209000000,base_footprint,-1.9815624689279348e-06,0.0015896500995806976,0.00020125325256043313,0.9999987162520574,0.0,0.0,0.0,0.0,0.0,0.0,0.0,0.0,0.0,-4.897096830190569e-05,-0.00021123927338487328,7.988493316443378e-06,0.0,0.0,0.0,0.0,0.0,0.0,0.0,0.0,0.0,9.962562478287619e-11,3.1070537976859354e-10,5.554290612302308e-12,0.0,0.0,0.0,0.0,0.0,0.0,0.0,0.0,0.0
110.21,109930,110,210000000,base_footprint,-1.981565380054176e-06,0.0015896500995778516,0.00020125508450696006,0.9999987162516886,0.0,0.0,0.0,0.0,0.0,0.0,0.0,0.0,0.0,-4.8970966686385224e-05,-0.00021123927379143608,7.98849521827407e-06,0.0,0.0,0.0,0.0,0.0,0.0,0.0,0.0,0.0,9.903824811034358e-11,3.089504148838236e-10,7.916777579561436e-12,0.0,0.0,0.0,0.0,0.0,0.0,0.0,0.0,0.0
110.211,109931,110,211000000,base_footprint,-1.9815682911859306e-06,0.001589650099575001,0.00020125691645360517,0.9999987162513201,0.0,0.0,0.0,0.0,0.0,0.0,0.0,0.0,0.0,-4.8970965095285786e-05,-0.00021123927423226778,7.988497121335801e-06,0.0,0.0,0.0,0.0,0.0,0.0,0.0,0.0,0.0,9.913803231323002e-11,3.091126659424617e-10,8.906327617675056e-12,0.0,0.0,0.0,0.0,0.0,0.0,0.0,0.0,0.0
110.212,109932,110,212000000,base_footprint,-1.981571202316849e-06,0.0015896500995721357,0.00020125874840036436,0.9999987162509514,0.0,0.0,0.0,0.0,0.0,0.0,0.0,0.0,0.0,-4.897096349136398e-05,-0.00021123927469158195,7.988499016395705e-06,0.0,0.0,0.0,0.0,0.0,0.0,0.0,0.0,0.0,9.872876182024551e-11,3.0783544005341777e-10,9.098035107810392e-12,0.0,0.0,0.0,0.0,0.0,0.0,0.0,0.0,0.0
110.213,109933,110,213000000,base_footprint,-1.9815741134643437e-06,0.001589650099569273,0.00020126058034724314,0.9999987162505827,0.0,0.0,0.0,0.0,0.0,0.0,0.0,0.0,0.0,-4.8970961922312413e-05,-0.0002112392751166,7.988500922562053e-06,0.0,0.0,0.0,0.0,0.0,0.0,0.0,0.0,0.0,9.927537881083181e-11,3.095822924781791e-10,5.77750924605902e-12,0.0,0.0,0.0,0.0,0.0,0.0,0.0,0.0,0.0
110.214,109934,110,214000000,base_footprint,-1.9815770246099767e-06,0.0015896500995664035,0.00020126241229424192,0.999998716250214,0.0,0.0,0.0,0.0,0.0,0.0,0.0,0.0,0.0,-4.8970960316266795e-05,-0.000211239275560718,7.988502829357979e-06,0.0,0.0,0.0,0.0,0.0,0.0,0.0,0.0,0.0,9.93499546031758e-11,3.0974047526758373e-10,1.0466157799983467e-11,0.0,0.0,0.0,0.0,0.0,0.0,0.0,0.0,0.0
110.215,109935,110,215000000,base_footprint,-1.9815799357480135e-06,0.0015896500995635351,0.00020126424424136028,0.9999987162498453,0.0,0.0,0.0,0.0,0.0,0.0,0.0,0.0,0.0,-4.8970958698804534e-05,-0.0002112392759886295,7.988504735223157e-06,0.0,0.0,0.0,0.0,0.0,0.0,0.0,0.0,0.0,9.928092018778186e-11,3.0960709432345933e-10,9.055301961994957e-12,0.0,0.0,0.0,0.0,0.0,0.0,0.0,0.0,0.0
110.216,109936,110,216000000,base_footprint,-1.9815828468721526e-06,0.0015896500995606756,0.00020126607618860625,0.9999987162494766,0.0,0.0,0.0,0.0,0.0,0.0,0.0,0.0,0.0,-4.8970957068669833e-05,-0.00021123927640129487,7.988506656981401e-06,0.0,0.0,0.0,0.0,0.0,0.0,0.0,0.0,0.0,1.0011326307950293e-10,3.122018585792192e-10,5.919764740094971e-12,0.0,0.0,0.0,0.0,0.0,0.0,0.0,0.0,0.0
110.217,109937,110,217000000,base_footprint,-1.9815857580125048e-06,0.0015896500995578155,0.00020126790813596485,0.9999987162491079,0.0,0.0,0.0,0.0,0.0,0.0,0.0,0.0,0.0,-4.89709554990489e-05,-0.00021123927683273946,7.988508549156117e-06,0.0,0.0,0.0,0.0,0.0,0.0,0.0,0.0,0.0,9.85271247080864e-11,3.073155644954157e-10,5.149865531673751e-12,0.0,0.0,0.0,0.0,0.0,0.0,0.0,0.0,0.0
110.218,109938,110,218000000,base_footprint,-1.98158866915952e-06,0.001589650099554959,0.00020126974008343894,0.9999987162487392,0.0,0.0,0.0,0.0,0.0,0.0,0.0,0.0,0.0,-4.897095391014718e-05,-0.0002112392772558248,7.988510447046431e-06,0.0,0.0,0.0,0.0,0.0,0.0,0.0,0.0,0.0,9.884136953838619e-11,3.082713875603054e-10,8.932509581406904e-12,0.0,0.0,0.0,0.0,0.0,0.0,0.0,0.0,0.0
110.219,109939,110,219000000,base_footprint,-1.9815915802990316e-06,0.0015896500995520987,0.0002012715720310317,0.9999987162483704,0.0,0.0,0.0,0.0,0.0,0.0,0.0,0.0,0.0,-4.89709522928094e-05,-0.00021123927769393545,7.988512351039089e-06,0.0,0.0,0.0,0.0,0.0,0.0,0.0,0.0,0.0,9.918685261755619e-11,3.093035247407328e-10,7.985692751519463e-12,0.0,0.0,0.0,0.0,0.0,0.0,0.0,0.0,0.0
110.22,109940,110,220000000,base_footprint,-1.9815944914340424e-06,0.001589650099549236,0.0002012734039787405,0.9999987162480016,0.0,0.0,0.0,0.0,0.0,0.0,0.0,0.0,0.0,-4.897095068161677e-05,-0.00021123927812874665,7.988514250000822e-06,0.0,0.0,0.0,0.0,0.0,0.0,0.0,0.0,0.0,9.891269439081368e-11,3.0847875567034266e-10,8.2392292193945e-12,0.0,0.0,0.0,0.0,0.0,0.0,0.0,0.0,0.0
110.221,109941,110,221000000,base_footprint,-1.98159740257235e-06,0.0015896500995463679,0.0002012752359265733,0.9999987162476328,0.0,0.0,0.0,0.0,0.0,0.0,0.0,0.0,0.0,-4.897094908603533e-05,-0.0002112392785704097,7.988516164814446e-06,0.0,0.0,0.0,0.0,0.0,0.0,0.0,0.0,0.0,9.977390643362124e-11,3.1102395951232284e-10,9.478466409261706e-12,0.0,0.0,0.0,0.0,0.0,0.0,0.0,0.0,0.0
110.222,109942,110,222000000,base_footprint,-1.981600313712779e-06,0.0015896500995435066,0.00020127706787452827,0.9999987162472641,0.0,0.0,0.0,0.0,0.0,0.0,0.0,0.0,0.0,-4.8970947487978436e-05,-0.00021123927898703261,7.988518075852528e-06,0.0,0.0,0.0,0.0,0.0,0.0,0.0,0.0,0.0,9.953981496647099e-11,3.1041571281221966e-10,7.482109736490303e-12,0.0,0.0,0.0,0.0,0.0,0.0,0.0,0.0,0.0
110.223,109943,110,223000000,base_footprint,-1.9816032248613483e-06,0.0015896500995406485,0.00020127889982260076,0.9999987162468954,0.0,0.0,0.0,0.0,0.0,0.0,0.0,0.0,0.0,-4.8970945902047485e-05,-0.00021123927941124428,7.988519977762806e-06,0.0,0.0,0.0,0.0,0.0,0.0,0.0,0.0,0.0,9.904930388964684e-11,3.0891806012708177e-10,5.98556541462531e-12,0.0,0.0,0.0,0.0,0.0,0.0,0.0,0.0,0.0
110.224,109944,110,224000000,base_footprint,-1.9816061359963807e-06,0.0015896500995377905,0.0002012807317707848,0.9999987162465267,0.0,0.0,0.0,0.0,0.0,0.0,0.0,0.0,0.0,-4.897094427266973e-05,-0.00021123927984125325,7.988521867486937e-06,0.0,0.0,0.0,0.0,0.0,0.0,0.0,0.0,0.0,9.841274610804891e-11,3.070096664495078e-10,8.012884352507353e-12,0.0,0.0,0.0,0.0,0.0,0.0,0.0,0.0,0.0
110.225,109945,110,225000000,base_footprint,-1.9816090471271135e-06,0.0015896500995349263,0.00020128256371909094,0.999998716246158,0.0,0.0,0.0,0.0,0.0,0.0,0.0,0.0,0.0,-4.897094266187554e-05,-0.00021123928028416038,7.988523778332949e-06,0.0,0.0,0.0,0.0,0.0,0.0,0.0,0.0,0.0,9.955854981501713e-11,3.104042091853081e-10,7.72885653408121e-12,0.0,0.0,0.0,0.0,0.0,0.0,0.0,0.0,0.0
110.226,109946,110,226000000,base_footprint,-1.981611958254929e-06,0.0015896500995320635,0.0002012843956675209,0.9999987162457893,0.0,0.0,0.0,0.0,0.0,0.0,0.0,0.0,0.0,-4.897094105379508e-05,-0.00021123928071165789,7.988525692737434e-06,0.0,0.0,0.0,0.0,0.0,0.0,0.0,0.0,0.0,9.973792778005244e-11,3.1097652293551154e-10,8.833274154957054e-12,0.0,0.0,0.0,0.0,0.0,0.0,0.0,0.0,0.0
110.227,109947,110,227000000,base_footprint,-1.981614869398294e-06,0.001589650099529201,0.00020128622761606205,0.9999987162454206,0.0,0.0,0.0,0.0,0.0,0.0,0.0,0.0,0.0,-4.897093948276221e-05,-0.00021123928114142592,7.988527582137917e-06,0.0,0.0,0.0,0.0,0.0,0.0,0.0,0.0,0.0,9.837831587516543e-11,3.068682882819119e-10,5.838473708573341e-12,0.0,0.0,0.0,0.0,0.0,0.0,0.0,0.0,0.0
110.228,109948,110,228000000,base_footprint,-1.9816177805464035e-06,0.0015896500995263472,0.00020128805956472464,0.9999987162450517,0.0,0.0,0.0,0.0,0.0,0.0,0.0,0.0,0.0,-4.8970937889955546e-05,-0.00021123928155385646,7.988529491975771e-06,0.0,0.0,0.0,0.0,0.0,0.0,0.0,0.0,0.0,9.947514752383959e-11,3.1021347629224443e-10,9.184007258784769e-12,0.0,0.0,0.0,0.0,0.0,0.0,0.0,0.0,0.0
110.229,109949,110,229000000,base_footprint,-1.981620691689245e-06,0.001589650099523492,0.00020128989151350723,0.999998716244683,0.0,0.0,0.0,0.0,0.0,0.0,0.0,0.0,0.0,-4.8970936277118966e-05,-0.00021123928198770413,7.988531398578434e-06,0.0,0.0,0.0,0.0,0.0,0.0,0.0,0.0,0.0,9.932118621976704e-11,3.097194361621269e-10,7.56804027910871e-12,0.0,0.0,0.0,0.0,0.0,0.0,0.0,0.0,0.0
110.23,109950,110,230000000,base_footprint,-1.9816236028339506e-06,0.0015896500995206332,0.0002012917234624104,0.9999987162443142,0.0,0.0,0.0,0.0,0.0,0.0,0.0,0.0,0.0,-4.897093467865323e-05,-0.00021123928242562247,7.988533306518234e-06,0.0,0.0,0.0,0.0,0.0,0.0,0.0,0.0,0.0,9.939142583447294e-11,3.0991432601699876e-10,6.54760376938786e-12,0.0,0.0,0.0,0.0,0.0,0.0,0.0,0.0,0.0
110.231,109951,110,231000000,base_footprint,-1.9816265139650646e-06,0.0015896500995177742,0.00020129355541143726,0.9999987162439455,0.0,0.0,0.0,0.0,0.0,0.0,0.0,0.0,0.0,-4.897093304905165e-05,-0.0002112392828558965,7.988535220439182e-06,0.0,0.0,0.0,0.0,0.0,0.0,0.0,0.0,0.0,9.971883948145188e-11,3.1093094108764963e-10,8.989847185328105e-12,0.0,0.0,0.0,0.0,0.0,0.0,0.0,0.0,0.0
110.232,109952,110,232000000,base_footprint,-1.9816294251003257e-06,0.0015896500995149097,0.00020129538736057793,0.9999987162435767,0.0,0.0,0.0,0.0,0.0,0.0,0.0,0.0,0.0,-4.897093145532403e-05,-0.0002112392832975257,7.988537114925442e-06,0.0,0.0,0.0,0.0,0.0,0.0,0.0,0.0,0.0,9.868062826013418e-11,3.077269132887206e-10,9.811048322211047e-12,0.0,0.0,0.0,0.0,0.0,0.0,0.0,0.0,0.0
110.233,109953,110,233000000,base_footprint,-1.98163233624472e-06,0.0015896500995120424,0.00020129721930983946,0.9999987162432079,0.0,0.0,0.0,0.0,0.0,0.0,0.0,0.0,0.0,-4.897092987128405e-05,-0.00021123928373335547,7.98853902358631e-06,0.0,0.0,0.0,0.0,0.0,0.0,0.0,0.0,0.0,9.942997748958226e-11,3.100094118351731e-10,7.986610556385033e-12,0.0,0.0,0.0,0.0,0.0,0.0,0.0,0.0,0.0
110.234,109954,110,234000000,base_footprint,-1.9816352473833572e-06,0.001589650099509184,0.00020129905125921535,0.9999987162428391,0.0,0.0,0.0,0.0,0.0,0.0,0.0,0.0,0.0,-4.897092825750944e-05,-0.00021123928414601827,7.988540919028675e-06,0.0,0.0,0.0,0.0,0.0,0.0,0.0,0.0,0.0,9.870003130753199e-11,3.0791249099282886e-10,7.869454472259292e-12,0.0,0.0,0.0,0.0,0.0,0.0,0.0,0.0,0.0
110.235,109955,110,235000000,base_footprint,-1.9816381585218463e-06,0.0015896500995063237,0.00020130088320870334,0.9999987162424705,0.0,0.0,0.0,0.0,0.0,0.0,0.0,0.0,0.0,-4.897092665507187e-05,-0.00021123928458106027,7.988542809854404e-06,0.0,0.0,0.0,0.0,0.0,0.0,0.0,0.0,0.0,9.84713871541786e-11,3.07147148977175e-10,7.6676617095059e-12,0.0,0.0,0.0,0.0,0.0,0.0,0.0,0.0,0.0
110.236,109956,110,236000000,base_footprint,-1.9816410696749133e-06,0.0015896500995034612,0.00020130271515832312,0.9999987162421017,0.0,0.0,0.0,0.0,0.0,0.0,0.0,0.0,0.0,-4.89709250819154e-05,-0.00021123928501504805,7.988544740548854e-06,0.0,0.0,0.0,0.0,0.0,0.0,0.0,0.0,0.0,1.0060881331367463e-10,3.135632439693653e-10,6.835463223362711e-12,0.0,0.0,0.0,0.0,0.0,0.0,0.0,0.0,0.0
110.237,109957,110,237000000,base_footprint,-1.981643980812476e-06,0.001589650099500599,0.00020130454710806203,0.9999987162417329,0.0,0.0,0.0,0.0,0.0,0.0,0.0,0.0,0.0,-4.8970923448559116e-05,-0.00021123928544490805,7.988546645304906e-06,0.0,0.0,0.0,0.0,0.0,0.0,0.0,0.0,0.0,9.92193344190053e-11,3.0945139370773296e-10,6.947690303532309e-12,0.0,0.0,0.0,0.0,0.0,0.0,0.0,0.0,0.0
110.238,109958,110,238000000,base_footprint,-1.981646891948739e-06,0.0015896500994977347,0.0002013063790579235,0.999998716241364,0.0,0.0,0.0,0.0,0.0,0.0,0.0,0.0,0.0,-4.897092184378485e-05,-0.00021123928587949936,7.988548557225797e-06,0.0,0.0,0.0,0.0,0.0,0.0,0.0,0.0,0.0,9.961170279293842e-11,3.1056906142661193e-10,9.14180911044204e-12,0.0,0.0,0.0,0.0,0.0,0.0,0.0,0.0,0.0
110.239,109959,110,239000000,base_footprint,-1.9816498030911024e-06,0.0015896500994948693,0.00020130821100789424,0.9999987162409952,0.0,0.0,0.0,0.0,0.0,0.0,0.0,0.0,0.0,-4.897092025384468e-05,-0.0002112392863117221,7.988550442708351e-06,0.0,0.0,0.0,0.0,0.0,0.0,0.0,0.0,0.0,9.818668605765261e-11,3.0626212833739645e-10,1.0090270686897598e-11,0.0,0.0,0.0,0.0,0.0,0.0,0.0,0.0,0.0
110.239,73215,1778970858,842535394,imu_link,-0.0003038507711607963,0.03411504626274109,-0.1741439402103424,-0.9841247200965881,0.0024999999441206455,0.0,0.0,0.0,0.0024999999441206455,0.0,0.0,0.0,0.0024999999441206455,0.0,0.0,0.0,0.019999999552965164,0.0,0.0,0.0,0.019999999552965164,0.0,0.0,0.0,0.019999999552965164,0.652419924736023,-0.15322890877723694,9.598953247070312,0.03999999910593033,0.0,0.0,0.0,0.03999999910593033,0.0,0.0,0.0,0.03999999910593033
110.24,109960,110,240000000,base_footprint,-1.981652714236505e-06,0.001589650099492011,0.00020131004295798183,0.9999987162406264,0.0,0.0,0.0,0.0,0.0,0.0,0.0,0.0,0.0,-4.897091865764542e-05,-0.0002112392867283634,7.988552343122309e-06,0.0,0.0,0.0,0.0,0.0,0.0,0.0,0.0,0.0,9.895585652369152e-11,3.0869155171602555e-10,3.9365009669183285e-12,0.0,0.0,0.0,0.0,0.0,0.0,0.0,0.0,0.0
110.241,109961,110,241000000,base_footprint,-1.9816556253877144e-06,0.0015896500994891543,0.00020131187490820147,0.9999987162402576,0.0,0.0,0.0,0.0,0.0,0.0,0.0,0.0,0.0,-4.8970917066928914e-05,-0.00021123928715498333,7.988554274056195e-06,0.0,0.0,0.0,0.0,0.0,0.0,0.0,0.0,0.0,1.0061041676305714e-10,3.136288013833141e-10,4.69102381937089e-12,0.0,0.0,0.0,0.0,0.0,0.0,0.0,0.0,0.0
110.242,109962,110,242000000,base_footprint,-1.981658536520936e-06,0.0015896500994862944,0.00020131370685854254,0.999998716239889,0.0,0.0,0.0,0.0,0.0,0.0,0.0,0.0,0.0,-4.897091542860179e-05,-0.0002112392875932265,7.988556183342505e-06,0.0,0.0,0.0,0.0,0.0,0.0,0.0,0.0,0.0,9.948367505358252e-11,3.1019294368444516e-10,1.040674958091533e-11,0.0,0.0,0.0,0.0,0.0,0.0,0.0,0.0,0.0
110.243,109963,110,243000000,base_footprint,-1.981661447663384e-06,0.0015896500994834362,0.00020131553880899797,0.9999987162395202,0.0,0.0,0.0,0.0,0.0,0.0,0.0,0.0,0.0,-4.897091384493686e-05,-0.00021123928801917278,7.988558079151253e-06,0.0,0.0,0.0,0.0,0.0,0.0,0.0,0.0,0.0,9.87328994198824e-11,3.079259174428179e-10,9.38139264809074e-12,0.0,0.0,0.0,0.0,0.0,0.0,0.0,0.0,0.0
110.244,109964,110,244000000,base_footprint,-1.981664358810411e-06,0.0015896500994805813,0.00020131737075956702,0.9999987162391514,0.0,0.0,0.0,0.0,0.0,0.0,0.0,0.0,0.0,-4.897091225192137e-05,-0.0002112392884431554,7.988559973200442e-06,0.0,0.0,0.0,0.0,0.0,0.0,0.0,0.0,0.0,9.862800960394432e-11,3.076552895148825e-10,6.424591654390284e-12,0.0,0.0,0.0,0.0,0.0,0.0,0.0,0.0,0.0
110.245,109965,110,245000000,base_footprint,-1.981667269947523e-06,0.0015896500994777244,0.00020131920271025406,0.9999987162387826,0.0,0.0,0.0,0.0,0.0,0.0,0.0,0.0,0.0,-4.897091062979947e-05,-0.0002112392888772653,7.98856187580237e-06,0.0,0.0,0.0,0.0,0.0,0.0,0.0,0.0,0.0,9.911581473023381e-11,3.090854354602182e-10,1.0215457023776076e-11,0.0,0.0,0.0,0.0,0.0,0.0,0.0,0.0,0.0
110.246,109966,110,246000000,base_footprint,-1.9816701810891677e-06,0.0015896500994748623,0.0002013210346610679,0.9999987162384137,0.0,0.0,0.0,0.0,0.0,0.0,0.0,0.0,0.0,-4.897090903666362e-05,-0.00021123928931818847,7.988563796254925e-06,0.0,0.0,0.0,0.0,0.0,0.0,0.0,0.0,0.0,1.0006862891597714e-10,3.11933933799157e-10,7.0628998060298975e-12,0.0,0.0,0.0,0.0,0.0,0.0,0.0,0.0,0.0
110.246,73216,1778970858,845535394,imu_link,0.0003514542186167091,0.03430604189634323,-0.17416486144065857,-0.9841142296791077,0.0024999999441206455,0.0,0.0,0.0,0.0024999999441206455,0.0,0.0,0.0,0.0024999999441206455,0.0,0.0,0.0,0.019999999552965164,0.0,0.0,0.0,0.019999999552965164,0.0,0.0,0.0,0.019999999552965164,0.6548141837120056,-0.15981295704841614,9.631275177001953,0.03999999910593033,0.0,0.0,0.0,0.03999999910593033,0.0,0.0,0.0,0.03999999910593033
110.247,109967,110,247000000,base_footprint,-1.9816730922308684e-06,0.0015896500994719994,0.0002013228666119983,0.9999987162380449,0.0,0.0,0.0,0.0,0.0,0.0,0.0,0.0,0.0,-4.8970907434465555e-05,-0.00021123928975026865,7.988565696127097e-06,0.0,0.0,0.0,0.0,0.0,0.0,0.0,0.0,0.0,9.895758454872445e-11,3.0861259023965215e-10,8.316308476560078e-12,0.0,0.0,0.0,0.0,0.0,0.0,0.0,0.0,0.0
110.248,109968,110,248000000,base_footprint,-1.9816760033729493e-06,0.0015896500994691343,0.00020132469856304694,0.9999987162376761,0.0,0.0,0.0,0.0,0.0,0.0,0.0,0.0,0.0,-4.8970905833053417e-05,-0.00021123929018479682,7.988567599466694e-06,0.0,0.0,0.0,0.0,0.0,0.0,0.0,0.0,0.0,9.914866779216038e-11,3.0917348804877773e-10,9.064574155639559e-12,0.0,0.0,0.0,0.0,0.0,0.0,0.0,0.0,0.0
110.248,109969,110,249000000,base_footprint,-1.981678914521718e-06,0.0015896500994662705,0.00020132653051421154,0.9999987162373073,0.0,0.0,0.0,0.0,0.0,0.0,0.0,0.0,0.0,-4.8970904244212616e-05,-0.0002112392906124507,7.988569498194847e-06,0.0,0.0,0.0,0.0,0.0,0.0,0.0,0.0,0.0,9.888669314443427e-11,3.084069442855595e-10,7.54329823347022e-12,0.0,0.0,0.0,0.0,0.0,0.0,0.0,0.0,0.0
110.25,109970,110,250000000,base_footprint,-1.9816818256588676e-06,0.0015896500994634134,0.0002013283624654996,0.9999987162369385,0.0,0.0,0.0,0.0,0.0,0.0,0.0,0.0,0.0,-4.897090261856148e-05,-0.00021123929102955197,7.98857141171927e-06,0.0,0.0,0.0,0.0,0.0,0.0,0.0,0.0,0.0,9.967369471702465e-11,3.1086081937619263e-10,5.9726139676482536e-12,0.0,0.0,0.0,0.0,0.0,0.0,0.0,0.0,0.0
110.251,109971,110,251000000,base_footprint,-1.981684736797143e-06,0.0015896500994605478,0.00020133019441690862,0.9999987162365696,0.0,0.0,0.0,0.0,0.0,0.0,0.0,0.0,0.0,-4.897090101867604e-05,-0.00021123929147666976,7.988573320442838e-06,0.0,0.0,0.0,0.0,0.0,0.0,0.0,0.0,0.0,9.944849151226986e-11,3.1004348827229544e-10,8.254289776084115e-12,0.0,0.0,0.0,0.0,0.0,0.0,0.0,0.0,0.0
110.252,109972,110,252000000,base_footprint,-1.981687647944878e-06,0.001589650099457691,0.00020133202636843175,0.9999987162362006,0.0,0.0,0.0,0.0,0.0,0.0,0.0,0.0,0.0,-4.897089943542207e-05,-0.00021123929188940414,7.988575215644871e-06,0.0,0.0,0.0,0.0,0.0,0.0,0.0,0.0,0.0,9.867944017869425e-11,3.0782716769371914e-10,7.138079902560558e-12,0.0,0.0,0.0,0.0,0.0,0.0,0.0,0.0,0.0
110.253,109973,110,253000000,base_footprint,-1.981690559079742e-06,0.0015896500994548306,0.00020133385832006887,0.9999987162358318,0.0,0.0,0.0,0.0,0.0,0.0,0.0,0.0,0.0,-4.897089780736103e-05,-0.0002112392923271167,7.988577110137846e-06,0.0,0.0,0.0,0.0,0.0,0.0,0.0,0.0,0.0,9.867831449356268e-11,3.0778033281568705e-10,8.413199984058017e-12,0.0,0.0,0.0,0.0,0.0,0.0,0.0,0.0,0.0
110.254,109974,110,254000000,base_footprint,-1.9816934702374994e-06,0.0015896500994519748,0.00020133569027181683,0.999998716235463,0.0,0.0,0.0,0.0,0.0,0.0,0.0,0.0,0.0,-4.8970896251125324e-05,-0.00021123929274833258,7.988578998902907e-06,0.0,0.0,0.0,0.0,0.0,0.0,0.0,0.0,0.0,9.833009844412372e-11,3.067429741503897e-10,5.039864604774645e-12,0.0,0.0,0.0,0.0,0.0,0.0,0.0,0.0,0.0
110.255,109975,110,255000000,base_footprint,-1.9816963813894314e-06,0.0015896500994491145,0.0002013375222236899,0.9999987162350943,0.0,0.0,0.0,0.0,0.0,0.0,0.0,0.0,0.0,-4.897089463709487e-05,-0.00021123929318850245,7.988580915776297e-06,0.0,0.0,0.0,0.0,0.0,0.0,0.0,0.0,0.0,9.988483241494521e-11,3.113858231006812e-10,9.007931751296113e-12,0.0,0.0,0.0,0.0,0.0,0.0,0.0,0.0,0.0
110.256,109976,110,256000000,base_footprint,-1.981699292531326e-06,0.0015896500994462565,0.00020133935417569103,0.9999987162347254,0.0,0.0,0.0,0.0,0.0,0.0,0.0,0.0,0.0,-4.897089301466949e-05,-0.00021123929361305515,7.988582838617222e-06,0.0,0.0,0.0,0.0,0.0,0.0,0.0,0.0,0.0,1.0019072725840108e-10,3.1236529095793996e-10,8.523581050792994e-12,0.0,0.0,0.0,0.0,0.0,0.0,0.0,0.0,0.0
110.257,109977,110,257000000,base_footprint,-1.9817022036811204e-06,0.0015896500994433988,0.00020134118612780518,0.9999987162343565,0.0,0.0,0.0,0.0,0.0,0.0,0.0,0.0,0.0,-4.897089142833305e-05,-0.0002112392940436722,7.988584731537138e-06,0.0,0.0,0.0,0.0,0.0,0.0,0.0,0.0,0.0,9.857763121744362e-11,3.0746178405089377e-10,7.822987513085084e-12,0.0,0.0,0.0,0.0,0.0,0.0,0.0,0.0,0.0
110.258,109978,110,258000000,base_footprint,-1.981705114829978e-06,0.0015896500994405408,0.00020134301808003604,0.9999987162339877,0.0,0.0,0.0,0.0,0.0,0.0,0.0,0.0,0.0,-4.897088982423073e-05,-0.0002112392944742424,7.98858663176135e-06,0.0,0.0,0.0,0.0,0.0,0.0,0.0,0.0,0.0,9.897487186862813e-11,3.086728992180445e-10,8.336826037951014e-12,0.0,0.0,0.0,0.0,0.0,0.0,0.0,0.0,0.0
110.259,109979,110,259000000,base_footprint,-1.9817080259713975e-06,0.0015896500994376798,0.00020134485003238728,0.9999987162336189,0.0,0.0,0.0,0.0,0.0,0.0,0.0,0.0,0.0,-4.897088820707771e-05,-0.00021123929491102618,7.98858853914337e-06,0.0,0.0,0.0,0.0,0.0,0.0,0.0,0.0,0.0,9.936604218470981e-11,3.098524369564308e-10,7.410110852717934e-12,0.0,0.0,0.0,0.0,0.0,0.0,0.0,0.0,0.0
110.26,109980,110,260000000,base_footprint,-1.9817109371148685e-06,0.0015896500994348095,0.0002013466819848541,0.99999871623325,0.0,0.0,0.0,0.0,0.0,0.0,0.0,0.0,0.0,-4.89708866090433e-05,-0.00021123929535942054,7.988590437203343e-06,0.0,0.0,0.0,0.0,0.0,0.0,0.0,0.0,0.0,9.887888392502551e-11,3.0831256759552034e-10,9.31123245370313e-12,0.0,0.0,0.0,0.0,0.0,0.0,0.0,0.0,0.0
110.261,109981,110,261000000,base_footprint,-1.98171384825407e-06,0.00158965009943194,0.00020134851393744751,0.9999987162328811,0.0,0.0,0.0,0.0,0.0,0.0,0.0,0.0,0.0,-4.897088499812191e-05,-0.0002112392957880166,7.988592357126946e-06,0.0,0.0,0.0,0.0,0.0,0.0,0.0,0.0,0.0,1.0003634096556337e-10,3.1187531175632355e-10,8.824792675395303e-12,0.0,0.0,0.0,0.0,0.0,0.0,0.0,0.0,0.0
110.261,109982,110,262000000,base_footprint,-1.981716759406704e-06,0.001589650099429075,0.00020135034589016237,0.9999987162325122,0.0,0.0,0.0,0.0,0.0,0.0,0.0,0.0,0.0,-4.89708834227743e-05,-0.00021123929621042343,7.988594266962581e-06,0.0,0.0,0.0,0.0,0.0,0.0,0.0,0.0,0.0,9.94789654726356e-11,3.1018631714950473e-10,8.148725893290368e-12,0.0,0.0,0.0,0.0,0.0,0.0,0.0,0.0,0.0
110.263,109983,110,263000000,base_footprint,-1.981719670552802e-06,0.0015896500994262144,0.00020135217784299382,0.9999987162321434,0.0,0.0,0.0,0.0,0.0,0.0,0.0,0.0,0.0,-4.897088180742926e-05,-0.00021123929663151864,7.98859616685363e-06,0.0,0.0,0.0,0.0,0.0,0.0,0.0,0.0,0.0,9.894792411602625e-11,3.0863571877887715e-10,7.766516996877644e-12,0.0,0.0,0.0,0.0,0.0,0.0,0.0,0.0,0.0
110.263,109984,110,264000000,base_footprint,-1.9817225816920336e-06,0.001589650099423363,0.00020135400979593492,0.9999987162317746,0.0,0.0,0.0,0.0,0.0,0.0,0.0,0.0,0.0,-4.8970880191542895e-05,-0.00021123929704363977,7.988598052799424e-06,0.0,0.0,0.0,0.0,0.0,0.0,0.0,0.0,0.0,9.818513767682316e-11,3.063768605182474e-10,6.825319174280624e-12,0.0,0.0,0.0,0.0,0.0,0.0,0.0,0.0,0.0
110.263,109985,110,265000000,base_footprint,-1.9817254928343543e-06,0.0015896500994205035,0.0002013558417489982,0.9999987162314057,0.0,0.0,0.0,0.0,0.0,0.0,0.0,0.0,0.0,-4.897087859544604e-05,-0.0002112392974901138,7.988599963920596e-06,0.0,0.0,0.0,0.0,0.0,0.0,0.0,0.0,0.0,9.956836728466814e-11,3.104264347987285e-10,5.871001381037487e-12,0.0,0.0,0.0,0.0,0.0,0.0,0.0,0.0,0.0
110.266,109986,110,266000000,base_footprint,-1.981728403989054e-06,0.0015896500994176425,0.0002013576737021778,0.9999987162310368,0.0,0.0,0.0,0.0,0.0,0.0,0.0,0.0,0.0,-4.8970877018021954e-05,-0.00021123929792374817,7.988601863499423e-06,0.0,0.0,0.0,0.0,0.0,0.0,0.0,0.0,0.0,9.893577543022484e-11,3.0852740442068885e-10,7.314651583524078e-12,0.0,0.0,0.0,0.0,0.0,0.0,0.0,0.0,0.0
110.267,109987,110,267000000,base_footprint,-1.981731315136911e-06,0.0015896500994147795,0.00020135950565548495,0.9999987162306678,0.0,0.0,0.0,0.0,0.0,0.0,0.0,0.0,0.0,-4.897087540201083e-05,-0.00021123929835815424,7.98860378531651e-06,0.0,0.0,0.0,0.0,0.0,0.0,0.0,0.0,0.0,1.0015043843534415e-10,3.121899232307677e-10,1.0556131692032478e-11,0.0,0.0,0.0,0.0,0.0,0.0,0.0,0.0,0.0
110.268,109988,110,268000000,base_footprint,-1.9817342262906067e-06,0.00158965009941192,0.00020136133760891055,0.9999987162302989,0.0,0.0,0.0,0.0,0.0,0.0,0.0,0.0,0.0,-4.897087381143145e-05,-0.00021123929878142828,7.988605689107927e-06,0.0,0.0,0.0,0.0,0.0,0.0,0.0,0.0,0.0,9.915532349978254e-11,3.0922994138953094e-10,7.556419819195796e-12,0.0,0.0,0.0,0.0,0.0,0.0,0.0,0.0,0.0
110.269,109989,110,269000000,base_footprint,-1.9817371374319385e-06,0.0015896500994090615,0.00020136316956246322,0.9999987162299302,0.0,0.0,0.0,0.0,0.0,0.0,0.0,0.0,0.0,-4.897087218428468e-05,-0.00021123929921079617,7.988607609689141e-06,0.0,0.0,0.0,0.0,0.0,0.0,0.0,0.0,0.0,1.00067266840646e-10,3.120064734550259e-10,6.2696228613995514e-12,0.0,0.0,0.0,0.0,0.0,0.0,0.0,0.0,0.0
110.27,109990,110,270000000,base_footprint,-1.9817400485691655e-06,0.0015896500994061983,0.00020136500151612052,0.9999987162295613,0.0,0.0,0.0,0.0,0.0,0.0,0.0,0.0,0.0,-4.897087057405375e-05,-0.00021123929964965868,7.988609485760256e-06,0.0,0.0,0.0,0.0,0.0,0.0,0.0,0.0,0.0,9.768094670695285e-11,3.047679023184738e-10,7.210135958453377e-12,0.0,0.0,0.0,0.0,0.0,0.0,0.0,0.0,0.0
110.271,109991,110,271000000,base_footprint,-1.9817429597186046e-06,0.0015896500994033401,0.00020136683346990233,0.9999987162291923,0.0,0.0,0.0,0.0,0.0,0.0,0.0,0.0,0.0,-4.897086899626145e-05,-0.0002112393000697181,7.988611401775674e-06,0.0,0.0,0.0,0.0,0.0,0.0,0.0,0.0,0.0,9.980793736522436e-11,3.111919327191388e-10,7.810947535609428e-12,0.0,0.0,0.0,0.0,0.0,0.0,0.0,0.0,0.0
110.272,109992,110,272000000,base_footprint,-1.981745870869425e-06,0.0015896500994004774,0.0002013686654238133,0.9999987162288234,0.0,0.0,0.0,0.0,0.0,0.0,0.0,0.0,0.0,-4.897086739665467e-05,-0.00021123930050943865,7.988613326924977e-06,0.0,0.0,0.0,0.0,0.0,0.0,0.0,0.0,0.0,1.003250479534869e-10,3.1270477060108027e-10,8.200038173220686e-12,0.0,0.0,0.0,0.0,0.0,0.0,0.0,0.0,0.0
110.273,109993,110,273000000,base_footprint,-1.981748782013076e-06,0.0015896500993976184,0.0002013704973778389,0.9999987162284545,0.0,0.0,0.0,0.0,0.0,0.0,0.0,0.0,0.0,-4.897086578000065e-05,-0.00021123930093251247,7.988615222808625e-06,0.0,0.0,0.0,0.0,0.0,0.0,0.0,0.0,0.0,9.873394487494151e-11,3.0798817666276065e-10,7.567143608111729e-12,0.0,0.0,0.0,0.0,0.0,0.0,0.0,0.0,0.0
110.274,109994,110,274000000,base_footprint,-1.9817516931591908e-06,0.001589650099394752,0.0002013723293319825,0.9999987162280856,0.0,0.0,0.0,0.0,0.0,0.0,0.0,0.0,0.0,-4.897086418270809e-05,-0.00021123930137778037,7.988617125707904e-06,0.0,0.0,0.0,0.0,0.0,0.0,0.0,0.0,0.0,9.91352236607946e-11,3.090959016377519e-10,9.158468887205505e-12,0.0,0.0,0.0,0.0,0.0,0.0,0.0,0.0,0.0
110.275,109995,110,275000000,base_footprint,-1.981754604301043e-06,0.0015896500993918823,0.00020137416128623595,0.9999987162277166,0.0,0.0,0.0,0.0,0.0,0.0,0.0,0.0,0.0,-4.89708625720168e-05,-0.00021123930181438238,7.988619012049683e-06,0.0,0.0,0.0,0.0,0.0,0.0,0.0,0.0,0.0,9.823529633517048e-11,3.0643301918161806e-10,8.397836487193709e-12,0.0,0.0,0.0,0.0,0.0,0.0,0.0,0.0,0.0
110.276,109996,110,276000000,base_footprint,-1.9817575154599206e-06,0.0015896500993890178,0.00020137599324061175,0.9999987162273477,0.0,0.0,0.0,0.0,0.0,0.0,0.0,0.0,0.0,-4.897086100390379e-05,-0.0002112393022345803,7.988620923839918e-06,0.0,0.0,0.0,0.0,0.0,0.0,0.0,0.0,0.0,9.957706418137348e-11,3.1049238410473193e-10,7.1600962859166976e-12,0.0,0.0,0.0,0.0,0.0,0.0,0.0,0.0,0.0
110.277,109997,110,277000000,base_footprint,-1.9817604266135365e-06,0.001589650099386163,0.0002013778251951164,0.9999987162269788,0.0,0.0,0.0,0.0,0.0,0.0,0.0,0.0,0.0,-4.897085939091669e-05,-0.00021123930264534143,7.988622848271606e-06,0.0,0.0,0.0,0.0,0.0,0.0,0.0,0.0,0.0,1.0025627759258883e-10,3.1260890129050653e-10,7.188671170517803e-12,0.0,0.0,0.0,0.0,0.0,0.0,0.0,0.0,0.0
110.278,109998,110,278000000,base_footprint,-1.981763337767279e-06,0.001589650099383312,0.00020137965714973923,0.9999987162266099,0.0,0.0,0.0,0.0,0.0,0.0,0.0,0.0,0.0,-4.897085778897665e-05,-0.00021123930306820007,7.988624751325516e-06,0.0,0.0,0.0,0.0,0.0,0.0,0.0,0.0,0.0,9.910792502560281e-11,3.0912759860338376e-10,4.617060386341641e-12,0.0,0.0,0.0,0.0,0.0,0.0,0.0,0.0,0.0
110.279,109999,110,279000000,base_footprint,-1.981766248914312e-06,0.0015896500993804563,0.00020138148910448626,0.9999987162262409,0.0,0.0,0.0,0.0,0.0,0.0,0.0,0.0,0.0,-4.8970856173233764e-05,-0.000211239303508022,7.988626666378127e-06,0.0,0.0,0.0,0.0,0.0,0.0,0.0,0.0,0.0,9.978892587290186e-11,3.1109338732834736e-10,9.715785064810282e-12,0.0,0.0,0.0,0.0,0.0,0.0,0.0,0.0,0.0
110.279,73217,1778970858,903535394,imu_link,0.005745959933847189,0.03409842774271965,-0.17434564232826233,-0.984072744846344,0.0024999999441206455,0.0,0.0,0.0,0.0024999999441206455,0.0,0.0,0.0,0.0024999999441206455,0.0,0.0,0.0,0.019999999552965164,0.0,0.0,0.0,0.019999999552965164,0.0,0.0,0.0,0.019999999552965164,0.6422445774078369,-0.1646013706922531,9.642646789550781,0.03999999910593033,0.0,0.0,0.0,0.03999999910593033,0.0,0.0,0.0,0.03999999910593033
110.28,110000,110,280000000,base_footprint,-1.9817691600733117e-06,0.001589650099377594,0.00020138332105934233,0.999998716225872,0.0,0.0,0.0,0.0,0.0,0.0,0.0,0.0,0.0,-4.8970854595086036e-05,-0.0002112393039514935,7.98862855146746e-06,0.0,0.0,0.0,0.0,0.0,0.0,0.0,0.0,0.0,9.817100554620901e-11,3.0618046352680723e-10,8.94020684521738e-12,0.0,0.0,0.0,0.0,0.0,0.0,0.0,0.0,0.0
110.281,110001,110,281000000,base_footprint,-1.9817720712157357e-06,0.0015896500993747315,0.00020138515301431118,0.9999987162255031,0.0,0.0,0.0,0.0,0.0,0.0,0.0,0.0,0.0,-4.897085295959409e-05,-0.00021123930438219033,7.988630443579136e-06,0.0,0.0,0.0,0.0,0.0,0.0,0.0,0.0,0.0,9.854330988593771e-11,3.074059674831813e-10,8.207062166024083e-12,0.0,0.0,0.0,0.0,0.0,0.0,0.0,0.0,0.0
110.282,110002,110,282000000,base_footprint,-1.981774982358399e-06,0.0015896500993718636,0.00020138698496939206,0.9999987162251341,0.0,0.0,0.0,0.0,0.0,0.0,0.0,0.0,0.0,-4.897085135796327e-05,-0.00021123930482371467,7.98863233444574e-06,0.0,0.0,0.0,0.0,0.0,0.0,0.0,0.0,0.0,9.848628177366931e-11,3.071526670198317e-10,9.750526139686643e-12,0.0,0.0,0.0,0.0,0.0,0.0,0.0,0.0,0.0
110.283,110003,110,283000000,base_footprint,-1.9817778935007887e-06,0.0015896500993690028,0.00020138881692459938,0.9999987162247652,0.0,0.0,0.0,0.0,0.0,0.0,0.0,0.0,0.0,-4.8970849755111695e-05,-0.00021123930523964636,7.988634254127617e-06,0.0,0.0,0.0,0.0,0.0,0.0,0.0,0.0,0.0,1.0000391080425538e-10,3.118240306528322e-10,7.259489823842999e-12,0.0,0.0,0.0,0.0,0.0,0.0,0.0,0.0,0.0
110.284,110004,110,284000000,base_footprint,-1.981780804657374e-06,0.0015896500993661427,0.00020139064887992304,0.9999987162243963,0.0,0.0,0.0,0.0,0.0,0.0,0.0,0.0,0.0,-4.8970848181396334e-05,-0.0002112393056688382,7.988636153801188e-06,0.0,0.0,0.0,0.0,0.0,0.0,0.0,0.0,0.0,9.893475109755591e-11,3.085368919649431e-10,6.916675984287454e-12,0.0,0.0,0.0,0.0,0.0,0.0,0.0,0.0,0.0
110.285,110005,110,285000000,base_footprint,-1.9817837158137434e-06,0.001589650099363278,0.00020139248083536843,0.9999987162240274,0.0,0.0,0.0,0.0,0.0,0.0,0.0,0.0,0.0,-4.897084657860884e-05,-0.00021123930610829732,7.988638064030386e-06,0.0,0.0,0.0,0.0,0.0,0.0,0.0,0.0,0.0,9.952318294227875e-11,3.102919149144436e-10,8.565428703820515e-12,0.0,0.0,0.0,0.0,0.0,0.0,0.0,0.0,0.0
110.286,110006,110,286000000,base_footprint,-1.981786626958126e-06,0.0015896500993604174,0.00020139431279093256,0.9999987162236584,0.0,0.0,0.0,0.0,0.0,0.0,0.0,0.0,0.0,-4.897084495230077e-05,-0.0002112393065303916,7.988639968096297e-06,0.0,0.0,0.0,0.0,0.0,0.0,0.0,0.0,0.0,9.917158637927649e-11,3.0932907919615254e-10,6.611006283612359e-12,0.0,0.0,0.0,0.0,0.0,0.0,0.0,0.0,0.0
110.286,73218,1778970858,906535394,imu_link,0.005159817170351744,0.034455325454473495,-0.17432238161563873,-0.9840678572654724,0.0024999999441206455,0.0,0.0,0.0,0.0024999999441206455,0.0,0.0,0.0,0.0024999999441206455,0.0,0.0,0.0,0.019999999552965164,0.0,0.0,0.0,0.019999999552965164,0.0,0.0,0.0,0.019999999552965164,0.6685808300971985,-0.1711854189634323,9.554659843444824,0.03999999910593033,0.0,0.0,0.0,0.03999999910593033,0.0,0.0,0.0,0.03999999910593033
110.287,110007,110,287000000,base_footprint,-1.981789538111177e-06,0.0015896500993575595,0.00020139614474661656,0.9999987162232895,0.0,0.0,0.0,0.0,0.0,0.0,0.0,0.0,0.0,-4.8970843367541805e-05,-0.0002112393069557521,7.98864187470265e-06,0.0,0.0,0.0,0.0,0.0,0.0,0.0,0.0,0.0,9.930491617267061e-11,3.0967735721681893e-10,6.6737968620571986e-12,0.0,0.0,0.0,0.0,0.0,0.0,0.0,0.0,0.0
110.288,110008,110,288000000,base_footprint,-1.981792449263854e-06,0.0015896500993547045,0.00020139797670242824,0.9999987162229206,0.0,0.0,0.0,0.0,0.0,0.0,0.0,0.0,0.0,-4.897084176435234e-05,-0.00021123930737988037,7.988643796881542e-06,0.0,0.0,0.0,0.0,0.0,0.0,0.0,0.0,0.0,1.0015166314474399e-10,3.1222893571607974e-10,8.73841275589708e-12,0.0,0.0,0.0,0.0,0.0,0.0,0.0,0.0,0.0
110.289,110009,110,289000000,base_footprint,-1.981795360414185e-06,0.0015896500993518405,0.00020139980865836613,0.9999987162225517,0.0,0.0,0.0,0.0,0.0,0.0,0.0,0.0,0.0,-4.8970840157369904e-05,-0.00021123930782874454,7.988645716014516e-06,0.0,0.0,0.0,0.0,0.0,0.0,0.0,0.0,0.0,1.0001224020013833e-10,3.117411626376208e-10,8.448195747838614e-12,0.0,0.0,0.0,0.0,0.0,0.0,0.0,0.0,0.0
110.29,110010,110,290000000,base_footprint,-1.9817982715716596e-06,0.0015896500993489804,0.00020140164061441176,0.9999987162221826,0.0,0.0,0.0,0.0,0.0,0.0,0.0,0.0,0.0,-4.897083856955255e-05,-0.0002112393082506468,7.98864759846729e-06,0.0,0.0,0.0,0.0,0.0,0.0,0.0,0.0,0.0,9.80045126104466e-11,3.0576787347711615e-10,7.502299421130882e-12,0.0,0.0,0.0,0.0,0.0,0.0,0.0,0.0,0.0
110.291,110011,110,291000000,base_footprint,-1.981801182722473e-06,0.0015896500993461216,0.00020140347257057532,0.9999987162218138,0.0,0.0,0.0,0.0,0.0,0.0,0.0,0.0,0.0,-4.8970836953939124e-05,-0.00021123930867945274,7.98864950090169e-06,0.0,0.0,0.0,0.0,0.0,0.0,0.0,0.0,0.0,9.908924772916828e-11,3.0904855324881217e-10,6.852641065978774e-12,0.0,0.0,0.0,0.0,0.0,0.0,0.0,0.0,0.0
110.292,110012,110,292000000,base_footprint,-1.981804093872101e-06,0.001589650099343263,0.00020140530452685421,0.9999987162214448,0.0,0.0,0.0,0.0,0.0,0.0,0.0,0.0,0.0,-4.897083534933831e-05,-0.00021123930910830265,7.988651398428408e-06,0.0,0.0,0.0,0.0,0.0,0.0,0.0,0.0,0.0,9.883249135689614e-11,3.082362244577141e-10,9.641853455387688e-12,0.0,0.0,0.0,0.0,0.0,0.0,0.0,0.0,0.0
110.293,110013,110,293000000,base_footprint,-1.9818070050268176e-06,0.0015896500993404078,0.00020140713648324695,0.9999987162210757,0.0,0.0,0.0,0.0,0.0,0.0,0.0,0.0,0.0,-4.8970833757415255e-05,-0.0002112393095317082,7.988653292942557e-06,0.0,0.0,0.0,0.0,0.0,0.0,0.0,0.0,0.0,9.865151419140596e-11,3.0772887632194627e-10,6.1957011630290545e-12,0.0,0.0,0.0,0.0,0.0,0.0,0.0,0.0,0.0
110.294,110014,110,294000000,base_footprint,-1.9818099161814016e-06,0.001589650099337539,0.00020140896843977345,0.9999987162207068,0.0,0.0,0.0,0.0,0.0,0.0,0.0,0.0,0.0,-4.897083215464858e-05,-0.0002112393099899818,7.988655227234024e-06,0.0,0.0,0.0,0.0,0.0,0.0,0.0,0.0,0.0,1.0083696025800186e-10,3.141912872557601e-10,8.505742708614491e-12,0.0,0.0,0.0,0.0,0.0,0.0,0.0,0.0,0.0
110.295,110015,110,295000000,base_footprint,-1.981812827337977e-06,0.0015896500993346741,0.00020141080039641775,0.9999987162203379,0.0,0.0,0.0,0.0,0.0,0.0,0.0,0.0,0.0,-4.897083055647423e-05,-0.00021123931041268219,7.988657129666832e-06,0.0,0.0,0.0,0.0,0.0,0.0,0.0,0.0,0.0,9.908963505612107e-11,3.0902128106712875e-10,9.668489849127301e-12,0.0,0.0,0.0,0.0,0.0,0.0,0.0,0.0,0.0
110.296,110016,110,296000000,base_footprint,-1.9818157384754035e-06,0.001589650099331817,0.00020141263235317432,0.9999987162199687,0.0,0.0,0.0,0.0,0.0,0.0,0.0,0.0,0.0,-4.8970828915827884e-05,-0.00021123931082628425,7.988659020744685e-06,0.0,0.0,0.0,0.0,0.0,0.0,0.0,0.0,0.0,9.846389163857192e-11,3.0724610181618856e-10,5.802576652951387e-12,0.0,0.0,0.0,0.0,0.0,0.0,0.0,0.0,0.0
110.297,110017,110,297000000,base_footprint,-1.9818186496240494e-06,0.0015896500993289621,0.00020141446431005136,0.9999987162195998,0.0,0.0,0.0,0.0,0.0,0.0,0.0,0.0,0.0,-4.897082733615554e-05,-0.00021123931125353234,7.988660928518991e-06,0.0,0.0,0.0,0.0,0.0,0.0,0.0,0.0,0.0,9.936786216411238e-11,3.0985908387713247e-10,6.473166527446026e-12,0.0,0.0,0.0,0.0,0.0,0.0,0.0,0.0,0.0
110.298,110018,110,298000000,base_footprint,-1.981821560786045e-06,0.0015896500993261091,0.00020141629626704816,0.9999987162192308,0.0,0.0,0.0,0.0,0.0,0.0,0.0,0.0,0.0,-4.897082576060457e-05,-0.00021123931167987391,7.988662835015752e-06,0.0,0.0,0.0,0.0,0.0,0.0,0.0,0.0,0.0,9.930051019306785e-11,3.096456291190564e-10,7.359701066036561e-12,0.0,0.0,0.0,0.0,0.0,0.0,0.0,0.0,0.0
110.299,110019,110,299000000,base_footprint,-1.981824471928077e-06,0.0015896500993232473,0.00020141812822416572,0.9999987162188619,0.0,0.0,0.0,0.0,0.0,0.0,0.0,0.0,0.0,-4.897082411826521e-05,-0.0002112393121289212,7.988664742931843e-06,0.0,0.0,0.0,0.0,0.0,0.0,0.0,0.0,0.0,9.942049025744381e-11,3.09977218256497e-10,1.0248446869995402e-11,0.0,0.0,0.0,0.0,0.0,0.0,0.0,0.0,0.0
110.299,73219,1778970858,913535394,imu_link,0.0045244223438203335,0.03483670949935913,-0.17429709434509277,-0.9840619564056396,0.0024999999441206455,0.0,0.0,0.0,0.0024999999441206455,0.0,0.0,0.0,0.0024999999441206455,0.0,0.0,0.0,0.019999999552965164,0.0,0.0,0.0,0.019999999552965164,0.0,0.0,0.0,0.019999999552965164,0.6721721291542053,-0.17717091739177704,9.66299819946289,0.03999999910593033,0.0,0.0,0.0,0.03999999910593033,0.0,0.0,0.0,0.03999999910593033
110.3,110020,110,300000000,base_footprint,-1.981827383078259e-06,0.0015896500993203824,0.0002014199601813993,0.9999987162184929,0.0,0.0,0.0,0.0,0.0,0.0,0.0,0.0,0.0,-4.8970822532487624e-05,-0.00021123931256449255,7.988666642085196e-06,0.0,0.0,0.0,0.0,0.0,0.0,0.0,0.0,0.0,9.892233077050447e-11,3.084712884803859e-10,9.306980235678775e-12,0.0,0.0,0.0,0.0,0.0,0.0,0.0,0.0,0.0
110.301,110021,110,301000000,base_footprint,-1.9818302942311733e-06,0.0015896500993175162,0.00020142179213876053,0.9999987162181239,0.0,0.0,0.0,0.0,0.0,0.0,0.0,0.0,0.0,-4.8970820935589256e-05,-0.00021123931299744386,7.98866856419189e-06,0.0,0.0,0.0,0.0,0.0,0.0,0.0,0.0,0.0,1.0015687560468051e-10,3.1220792588843066e-10,9.276935726579364e-12,0.0,0.0,0.0,0.0,0.0,0.0,0.0,0.0,0.0
110.302,110022,110,302000000,base_footprint,-1.981833205391921e-06,0.0015896500993146485,0.00020142362409623517,0.9999987162177548,0.0,0.0,0.0,0.0,0.0,0.0,0.0,0.0,0.0,-4.897081934908083e-05,-0.0002112393134307272,7.988670457935718e-06,0.0,0.0,0.0,0.0,0.0,0.0,0.0,0.0,0.0,9.862274269202912e-11,3.0759557352548194e-10,7.2628161788396785e-12,0.0,0.0,0.0,0.0,0.0,0.0,0.0,0.0,0.0
110.303,110023,110,303000000,base_footprint,-1.9818361165533945e-06,0.0015896500993117881,0.00020142545605383497,0.999998716217386,0.0,0.0,0.0,0.0,0.0,0.0,0.0,0.0,0.0,-4.89708177482007e-05,-0.00021123931384757562,7.988672374875036e-06,0.0,0.0,0.0,0.0,0.0,0.0,0.0,0.0,0.0,9.985349617284663e-11,3.1137649409420586e-10,6.1769617794451795e-12,0.0,0.0,0.0,0.0,0.0,0.0,0.0,0.0,0.0
110.304,110024,110,304000000,base_footprint,-1.9818390277063696e-06,0.001589650099308928,0.00020142728801154916,0.999998716217017,0.0,0.0,0.0,0.0,0.0,0.0,0.0,0.0,0.0,-4.897081612890492e-05,-0.0002112393142764154,7.98867427035086e-06,0.0,0.0,0.0,0.0,0.0,0.0,0.0,0.0,0.0,9.871224724296574e-11,3.0792609456125287e-10,5.7105478198648814e-12,0.0,0.0,0.0,0.0,0.0,0.0,0.0,0.0,0.0
110.305,110025,110,305000000,base_footprint,-1.9818419388574062e-06,0.0015896500993060675,0.0002014291199693937,0.9999987162166479,0.0,0.0,0.0,0.0,0.0,0.0,0.0,0.0,0.0,-4.897081452278173e-05,-0.00021123931470783412,7.988676197877482e-06,0.0,0.0,0.0,0.0,0.0,0.0,0.0,0.0,0.0,1.0044837955709548e-10,3.131002588909175e-10,9.187858739698615e-12,0.0,0.0,0.0,0.0,0.0,0.0,0.0,0.0,0.0
110.306,110026,110,306000000,base_footprint,-1.9818448500154284e-06,0.0015896500993032095,0.00020143095192734587,0.9999987162162789,0.0,0.0,0.0,0.0,0.0,0.0,0.0,0.0,0.0,-4.897081293457015e-05,-0.00021123931513282985,7.98867808004782e-06,0.0,0.0,0.0,0.0,0.0,0.0,0.0,0.0,0.0,9.799191656749138e-11,3.057226652925436e-10,7.322584766759464e-12,0.0,0.0,0.0,0.0,0.0,0.0,0.0,0.0,0.0
110.307,110027,110,307000000,base_footprint,-1.981847761170236e-06,0.0015896500993003559,0.00020143278388541286,0.9999987162159099,0.0,0.0,0.0,0.0,0.0,0.0,0.0,0.0,0.0,-4.897081132588761e-05,-0.00021123931555460223,7.988679976361667e-06,0.0,0.0,0.0,0.0,0.0,0.0,0.0,0.0,0.0,9.87513457905024e-11,3.0804620936816973e-10,6.830531427554479e-12,0.0,0.0,0.0,0.0,0.0,0.0,0.0,0.0,0.0
110.307,73220,1778970858,918535394,imu_link,0.0045244223438203335,0.03483670949935913,-0.17429709434509277,-0.9840619564056396,0.0024999999441206455,0.0,0.0,0.0,0.0024999999441206455,0.0,0.0,0.0,0.0024999999441206455,0.0,0.0,0.0,0.019999999552965164,0.0,0.0,0.0,0.019999999552965164,0.0,0.0,0.0,0.019999999552965164,0.6721721291542053,-0.17717091739177704,9.66299819946289,0.03999999910593033,0.0,0.0,0.0,0.03999999910593033,0.0,0.0,0.0,0.03999999910593033
110.308,110028,110,308000000,base_footprint,-1.9818506723239687e-06,0.001589650099297495,0.00020143461584360176,0.9999987162155408,0.0,0.0,0.0,0.0,0.0,0.0,0.0,0.0,0.0,-4.897080972153073e-05,-0.0002112393159993956,7.98868188699568e-06,0.0,0.0,0.0,0.0,0.0,0.0,0.0,0.0,0.0,9.95522922445288e-11,3.1035995220927114e-10,9.138834173668976e-12,0.0,0.0,0.0,0.0,0.0,0.0,0.0,0.0,0.0
110.309,110029,110,309000000,base_footprint,-1.9818535834766084e-06,0.0015896500992946304,0.0002014364478019119,0.9999987162151718,0.0,0.0,0.0,0.0,0.0,0.0,0.0,0.0,0.0,-4.897080811707845e-05,-0.00021123931643762735,7.988683796269494e-06,0.0,0.0,0.0,0.0,0.0,0.0,0.0,0.0,0.0,9.947315837003822e-11,3.1013970280556005e-10,9.361369673046552e-12,0.0,0.0,0.0,0.0,0.0,0.0,0.0,0.0,0.0
110.309,110030,110,310000000,base_footprint,-1.981856494632763e-06,0.0015896500992917692,0.00020143827976033845,0.9999987162148027,0.0,0.0,0.0,0.0,0.0,0.0,0.0,0.0,0.0,-4.897080652187848e-05,-0.00021123931686102082,7.98868569584489e-06,0.0,0.0,0.0,0.0,0.0,0.0,0.0,0.0,0.0,9.892603868966458e-11,3.085539297701684e-10,6.646939095485371e-12,0.0,0.0,0.0,0.0,0.0,0.0,0.0,0.0,0.0
110.309,110032,110,312000000,base_footprint,-1.9818623169579893e-06,0.0015896500992860477,0.0002014419436775592,0.9999987162140647,0.0,0.0,0.0,0.0,0.0,0.0,0.0,0.0,0.0,-4.897080333226895e-05,-0.00021123931772447268,7.98868951937588e-06,0.0,0.0,0.0,0.0,0.0,0.0,0.0,0.0,0.0,9.957483656302241e-11,3.1042126962803634e-10,1.1400094101532137e-11,0.0,0.0,0.0,0.0,0.0,0.0,0.0,0.0,0.0
110.309,73221,1778970858,923535394,imu_link,0.0037862034514546394,0.03494374454021454,-0.17427115142345428,-0.98406583070755,0.0024999999441206455,0.0,0.0,0.0,0.0024999999441206455,0.0,0.0,0.0,0.0024999999441206455,0.0,0.0,0.0,0.019999999552965164,0.0,0.0,0.0,0.019999999552965164,0.0,0.0,0.0,0.019999999552965164,0.6542155742645264,-0.1693897694349289,9.5809965133667,0.03999999910593033,0.0,0.0,0.0,0.03999999910593033,0.0,0.0,0.0,0.03999999910593033
110.313,110033,110,313000000,base_footprint,-1.9818652281095143e-06,0.0015896500992831856,0.00020144377563634472,0.9999987162136956,0.0,0.0,0.0,0.0,0.0,0.0,0.0,0.0,0.0,-4.897080170577305e-05,-0.0002112393181538533,7.988691414187862e-06,0.0,0.0,0.0,0.0,0.0,0.0,0.0,0.0,0.0,9.868601790060045e-11,3.0782971899961573e-10,8.248389039642496e-12,0.0,0.0,0.0,0.0,0.0,0.0,0.0,0.0,0.0
110.314,110034,110,314000000,base_footprint,-1.981868139247815e-06,0.001589650099280328,0.00020144560759525714,0.9999987162133266,0.0,0.0,0.0,0.0,0.0,0.0,0.0,0.0,0.0,-4.8970800076989165e-05,-0.0002112393185751449,7.98869333454393e-06,0.0,0.0,0.0,0.0,0.0,0.0,0.0,0.0,0.0,1.0004578161170565e-10,3.119727459036916e-10,5.951123848193787e-12,0.0,0.0,0.0,0.0,0.0,0.0,0.0,0.0,0.0
110.315,110035,110,315000000,base_footprint,-1.9818710504050137e-06,0.0015896500992774636,0.0002014474395542831,0.9999987162129576,0.0,0.0,0.0,0.0,0.0,0.0,0.0,0.0,0.0,-4.897079851274857e-05,-0.00021123931901959321,7.988695228695301e-06,0.0,0.0,0.0,0.0,0.0,0.0,0.0,0.0,0.0,9.8659588126997e-11,3.0762769307219636e-10,9.616852468776163e-12,0.0,0.0,0.0,0.0,0.0,0.0,0.0,0.0,0.0
110.316,110036,110,316000000,base_footprint,-1.981873961568787e-06,0.0015896500992746028,0.00020144927151343104,0.9999987162125885,0.0,0.0,0.0,0.0,0.0,0.0,0.0,0.0,0.0,-4.8970796923575084e-05,-0.00021123931944265565,7.988697139537047e-06,0.0,0.0,0.0,0.0,0.0,0.0,0.0,0.0,0.0,9.95318875270442e-11,3.1037055480319504e-10,6.931336992266753e-12,0.0,0.0,0.0,0.0,0.0,0.0,0.0,0.0,0.0
110.316,73222,1778970858,928535394,imu_link,0.0033299538772553205,0.035525936633348465,-0.17424997687339783,-0.9840503931045532,0.0024999999441206455,0.0,0.0,0.0,0.0024999999441206455,0.0,0.0,0.0,0.0024999999441206455,0.0,0.0,0.0,0.019999999552965164,0.0,0.0,0.0,0.019999999552965164,0.0,0.0,0.0,0.019999999552965164,0.6757634282112122,-0.17717091739177704,9.642646789550781,0.03999999910593033,0.0,0.0,0.0,0.03999999910593033,0.0,0.0,0.0,0.03999999910593033
110.317,110037,110,317000000,base_footprint,-1.981876872725482e-06,0.0015896500992717438,0.00020145110347270158,0.9999987162122195,0.0,0.0,0.0,0.0,0.0,0.0,0.0,0.0,0.0,-4.8970795307002045e-05,-0.0002112393198692602,7.988699051378016e-06,0.0,0.0,0.0,0.0,0.0,0.0,0.0,0.0,0.0,9.959239164124337e-11,3.1057418604964037e-10,6.4489762180033805e-12,0.0,0.0,0.0,0.0,0.0,0.0,0.0,0.0,0.0
110.318,110038,110,318000000,base_footprint,-1.9818797838777435e-06,0.001589650099268882,0.000201452935432083,0.9999987162118504,0.0,0.0,0.0,0.0,0.0,0.0,0.0,0.0,0.0,-4.897079369598258e-05,-0.0002112393203054336,7.98870093983692e-06,0.0,0.0,0.0,0.0,0.0,0.0,0.0,0.0,0.0,9.834605689487972e-11,3.0677641217427824e-10,7.474191702826259e-12,0.0,0.0,0.0,0.0,0.0,0.0,0.0,0.0,0.0
110.319,110039,110,319000000,base_footprint,-1.981882695027204e-06,0.0015896500992660192,0.00020145476739157783,0.9999987162114814,0.0,0.0,0.0,0.0,0.0,0.0,0.0,0.0,0.0,-4.8970792088198715e-05,-0.0002112393207372487,7.988702833433317e-06,0.0,0.0,0.0,0.0,0.0,0.0,0.0,0.0,0.0,9.861985027278035e-11,3.076045735477882e-10,8.400741861036599e-12,0.0,0.0,0.0,0.0,0.0,0.0,0.0,0.0,0.0
110.32,110040,110,320000000,base_footprint,-1.98188560619002e-06,0.0015896500992631567,0.00020145659935119173,0.9999987162111124,0.0,0.0,0.0,0.0,0.0,0.0,0.0,0.0,0.0,-4.897079051270053e-05,-0.0002112393211671836,7.98870473856972e-06,0.0,0.0,0.0,0.0,0.0,0.0,0.0,0.0,0.0,9.923238275807787e-11,3.094251666244929e-10,7.87904400034572e-12,0.0,0.0,0.0,0.0,0.0,0.0,0.0,0.0,0.0
110.321,110041,110,321000000,base_footprint,-1.981888517350049e-06,0.0015896500992602944,0.00020145843131092175,0.9999987162107433,0.0,0.0,0.0,0.0,0.0,0.0,0.0,0.0,0.0,-4.8970788904892415e-05,-0.0002112393215972541,7.988706637554417e-06,0.0,0.0,0.0,0.0,0.0,0.0,0.0,0.0,0.0,9.890617554981804e-11,3.084773594773881e-10,7.601959106958132e-12,0.0,0.0,0.0,0.0,0.0,0.0,0.0,0.0,0.0
110.322,110042,110,322000000,base_footprint,-1.9818914285058606e-06,0.001589650099257429,0.0002014602632707749,0.9999987162103743,0.0,0.0,0.0,0.0,0.0,0.0,0.0,0.0,0.0,-4.897078729409628e-05,-0.00021123932203400615,7.988708550530145e-06,0.0,0.0,0.0,0.0,0.0,0.0,0.0,0.0,0.0,9.967032164519732e-11,3.107492587615036e-10,8.841716220314387e-12,0.0,0.0,0.0,0.0,0.0,0.0,0.0,0.0,0.0
110.323,110043,110,323000000,base_footprint,-1.9818943396667686e-06,0.0015896500992545633,0.0002014620952307515,0.9999987162100051,0.0,0.0,0.0,0.0,0.0,0.0,0.0,0.0,0.0,-4.897078570209252e-05,-0.0002112393224644532,7.988710464309263e-06,0.0,0.0,0.0,0.0,0.0,0.0,0.0,0.0,0.0,9.969897018817549e-11,3.1085076760880085e-10,7.228316904242426e-12,0.0,0.0,0.0,0.0,0.0,0.0,0.0,0.0,0.0
110.323,110044,110,324000000,base_footprint,-1.981897250817476e-06,0.0015896500992517062,0.0002014639271908438,0.999998716209636,0.0,0.0,0.0,0.0,0.0,0.0,0.0,0.0,0.0,-4.8970784079332494e-05,-0.00021123932287752284,7.98871236237965e-06,0.0,0.0,0.0,0.0,0.0,0.0,0.0,0.0,0.0,9.883715828785727e-11,3.0835192144419805e-10,5.936971673521178e-12,0.0,0.0,0.0,0.0,0.0,0.0,0.0,0.0,0.0
110.324,110045,110,325000000,base_footprint,-1.981900161982154e-06,0.0015896500992488524,0.00020146575915105355,0.999998716209267,0.0,0.0,0.0,0.0,0.0,0.0,0.0,0.0,0.0,-4.897078250521043e-05,-0.00021123932330196447,7.988714264166888e-06,0.0,0.0,0.0,0.0,0.0,0.0,0.0,0.0,0.0,9.904757314740254e-11,3.0888031452046203e-10,8.260014760326141e-12,0.0,0.0,0.0,0.0,0.0,0.0,0.0,0.0,0.0
110.326,110046,110,326000000,base_footprint,-1.98190307314038e-06,0.0015896500992459925,0.0002014675911113835,0.9999987162088979,0.0,0.0,0.0,0.0,0.0,0.0,0.0,0.0,0.0,-4.897078088987639e-05,-0.00021123932374449774,7.988716171335843e-06,0.0,0.0,0.0,0.0,0.0,0.0,0.0,0.0,0.0,9.936642277660197e-11,3.098152599158684e-10,9.533469272183096e-12,0.0,0.0,0.0,0.0,0.0,0.0,0.0,0.0,0.0
110.327,110047,110,327000000,base_footprint,-1.981905984285477e-06,0.001589650099243133,0.00020146942307183334,0.9999987162085288,0.0,0.0,0.0,0.0,0.0,0.0,0.0,0.0,0.0,-4.8970779261392814e-05,-0.00021123932417365217,7.988718077768837e-06,0.0,0.0,0.0,0.0,0.0,0.0,0.0,0.0,0.0,9.930822562905507e-11,3.097158475648767e-10,7.145490886749986e-12,0.0,0.0,0.0,0.0,0.0,0.0,0.0,0.0,0.0
110.328,110048,110,328000000,base_footprint,-1.981908895449988e-06,0.001589650099240272,0.0002014712550324117,0.9999987162081598,0.0,0.0,0.0,0.0,0.0,0.0,0.0,0.0,0.0,-4.897077769801688e-05,-0.00021123932460787097,7.988720001719506e-06,0.0,0.0,0.0,0.0,0.0,0.0,0.0,0.0,0.0,1.0024482921935056e-10,3.1245558120066345e-10,7.10014865251982e-12,0.0,0.0,0.0,0.0,0.0,0.0,0.0,0.0,0.0
110.329,110049,110,329000000,base_footprint,-1.9819118066000486e-06,0.0015896500992374004,0.00020147308699310367,0.9999987162077906,0.0,0.0,0.0,0.0,0.0,0.0,0.0,0.0,0.0,-4.8970776066744485e-05,-0.00021123932505837415,7.98872189570154e-06,0.0,0.0,0.0,0.0,0.0,0.0,0.0,0.0,0.0,9.867014042441223e-11,3.077022048763079e-10,1.0253322957694944e-11,0.0,0.0,0.0,0.0,0.0,0.0,0.0,0.0,0.0
110.33,110050,110,330000000,base_footprint,-1.9819147177667786e-06,0.0015896500992345333,0.00020147491895391312,0.9999987162074215,0.0,0.0,0.0,0.0,0.0,0.0,0.0,0.0,0.0,-4.897077449801993e-05,-0.0002112393254804663,7.988723797620292e-06,0.0,0.0,0.0,0.0,0.0,0.0,0.0,0.0,0.0,9.904992319105009e-11,3.088935769719988e-10,7.884071759008743e-12,0.0,0.0,0.0,0.0,0.0,0.0,0.0,0.0,0.0
110.331,110051,110,331000000,base_footprint,-1.9819176289255817e-06,0.001589650099231675,0.00020147675091483313,0.9999987162070524,0.0,0.0,0.0,0.0,0.0,0.0,0.0,0.0,0.0,-4.897077287980857e-05,-0.0002112393258933647,7.988725685393159e-06,0.0,0.0,0.0,0.0,0.0,0.0,0.0,0.0,0.0,9.828271048179014e-11,3.0667630403018533e-10,6.205430103055166e-12,0.0,0.0,0.0,0.0,0.0,0.0,0.0,0.0,0.0
110.332,110052,110,332000000,base_footprint,-1.981920540090207e-06,0.0015896500992288172,0.0002014785828758766,0.9999987162066832,0.0,0.0,0.0,0.0,0.0,0.0,0.0,0.0,0.0,-4.897077128928019e-05,-0.00021123932632255313,7.988727599205724e-06,0.0,0.0,0.0,0.0,0.0,0.0,0.0,0.0,0.0,9.969786903213898e-11,3.1085430487128694e-10,6.960636263307144e-12,0.0,0.0,0.0,0.0,0.0,0.0,0.0,0.0,0.0
