Time,header.seq,header.stamp.secs,header.stamp.nsecs,header.frame_id,orientation.x,orientation.y,orientation.z,orientation.w,orientation_covariance_0,orientation_covariance_1,orientation_covariance_2,orientation_covariance_3,orientation_covariance_4,orientation_covariance_5,orientation_covariance_6,orientation_covariance_7,orientation_covariance_8,angular_velocity.x,angular_velocity.y,angular_velocity.z,angular_velocity_covariance_0,angular_velocity_covariance_1,angular_velocity_covariance_2,angular_velocity_covariance_3,angular_velocity_covariance_4,angular_velocity_covariance_5,angular_velocity_covariance_6,angular_velocity_covariance_7,angular_velocity_covariance_8,linear_acceleration.x,linear_acceleration.y,linear_acceleration.z,linear_acceleration_covariance_0,linear_acceleration_covariance_1,linear_acceleration_covariance_2,linear_acceleration_covariance_3,linear_acceleration_covariance_4,linear_acceleration_covariance_5,linear_acceleration_covariance_6,linear_acceleration_covariance_7,linear_acceleration_covariance_8
109.114,0,109,110000000,base_footprint,-1.978363244148091e-06,0.001589650102721548,0.000199240015291775,0.9999987166552032,0.0,0.0,0.0,0.0,0.0,0.0,0.0,0.0,0.0,-4.8972728638451554e-05,-0.0002112388003615907,7.986399913802585e-06,0.0,0.0,0.0,0.0,0.0,0.0,0.0,0.0,0.0,-1.0452043067924728e-07,-2.6342715257843934e-07,8.69647901360952e-05,0.0,0.0,0.0,0.0,0.0,0.0,0.0,0.0,0.0
109.114,1,109,111000000,base_footprint,-1.978366155073438e-06,0.0015896501027186927,0.00019924184710746437,0.9999987166548383,0.0,0.0,0.0,0.0,0.0,0.0,0.0,0.0,0.0,-4.89727270421697e-05,-0.00021123880079735777,7.986401828861581e-06,0.0,0.0,0.0,0.0,0.0,0.0,0.0,0.0,0.0,9.977759474411114e-11,3.1106424769287294e-10,6.938065120133519e-12,0.0,0.0,0.0,0.0,0.0,0.0,0.0,0.0,0.0
109.114,2,109,112000000,base_footprint,-1.978369066020612e-06,0.0015896501027158423,0.00019924367892326878,0.9999987166544732,0.0,0.0,0.0,0.0,0.0,0.0,0.0,0.0,0.0,-4.897272548393513e-05,-0.00021123880121706187,7.986403725964607e-06,0.0,0.0,0.0,0.0,0.0,0.0,0.0,0.0,0.0,9.878423603973917e-11,3.0809653875954356e-10,5.631737709822845e-12,0.0,0.0,0.0,0.0,0.0,0.0,0.0,0.0,0.0
109.114,4,109,114000000,base_footprint,-1.9783748878784605e-06,0.0015896501027101498,0.00019924734255524898,0.9999987166537433,0.0,0.0,0.0,0.0,0.0,0.0,0.0,0.0,0.0,-4.8972722242820676e-05,-0.00021123880207534547,7.986407555697245e-06,0.0,0.0,0.0,0.0,0.0,0.0,0.0,0.0,0.0,9.992468362875357e-11,3.114780807827724e-10,9.191920776233881e-12,0.0,0.0,0.0,0.0,0.0,0.0,0.0,0.0,0.0
109.117,5,109,115000000,base_footprint,-1.9783777988173264e-06,0.001589650102707289,0.00019924917437142125,0.9999987166533783,0.0,0.0,0.0,0.0,0.0,0.0,0.0,0.0,0.0,-4.897272066096564e-05,-0.00021123880253010038,7.986409461440253e-06,0.0,0.0,0.0,0.0,0.0,0.0,0.0,0.0,0.0,9.929866512876694e-11,3.0953260590044766e-10,8.790072989209727e-12,0.0,0.0,0.0,0.0,0.0,0.0,0.0,0.0,0.0
109.117,6,109,116000000,base_footprint,-1.9783807097522557e-06,0.001589650102704435,0.0001992510061877063,0.9999987166530132,0.0,0.0,0.0,0.0,0.0,0.0,0.0,0.0,0.0,-4.897271905105031e-05,-0.0002112388029468781,7.986411353609217e-06,0.0,0.0,0.0,0.0,0.0,0.0,0.0,0.0,0.0,9.853152215956677e-11,3.0737587423025576e-10,7.926273839327333e-12,0.0,0.0,0.0,0.0,0.0,0.0,0.0,0.0,0.0
109.117,7,109,117000000,base_footprint,-1.9783836206831976e-06,0.0015896501027015777,0.00019925283800410968,0.9999987166526484,0.0,0.0,0.0,0.0,0.0,0.0,0.0,0.0,0.0,-4.8972717441061703e-05,-0.0002112388033845687,7.9864132567018e-06,0.0,0.0,0.0,0.0,0.0,0.0,0.0,0.0,0.0,9.914321245678513e-11,3.091462591039184e-10,8.797196207036034e-12,0.0,0.0,0.0,0.0,0.0,0.0,0.0,0.0,0.0
109.119,8,109,118000000,base_footprint,-1.978386531606909e-06,0.00158965010269872,0.0001992546698206403,0.9999987166522833,0.0,0.0,0.0,0.0,0.0,0.0,0.0,0.0,0.0,-4.897271582439509e-05,-0.00021123880381516722,7.986415177861538e-06,0.0,0.0,0.0,0.0,0.0,0.0,0.0,0.0,0.0,1.0010812258399857e-10,3.120839539972071e-10,8.170410964503134e-12,0.0,0.0,0.0,0.0,0.0,0.0,0.0,0.0,0.0
109.119,9,109,119000000,base_footprint,-1.9783894425342347e-06,0.0015896501026958533,0.00019925650163728797,0.9999987166519183,0.0,0.0,0.0,0.0,0.0,0.0,0.0,0.0,0.0,-4.8972714229649854e-05,-0.00021123880426356722,7.986417078691609e-06,0.0,0.0,0.0,0.0,0.0,0.0,0.0,0.0,0.0,9.903258157399883e-11,3.0875607180182633e-10,9.592165509125384e-12,0.0,0.0,0.0,0.0,0.0,0.0,0.0,0.0,0.0
109.12,10,109,120000000,base_footprint,-1.978392353471528e-06,0.0015896501026929925,0.00019925833345405442,0.9999987166515533,0.0,0.0,0.0,0.0,0.0,0.0,0.0,0.0,0.0,-4.897271264755626e-05,-0.00021123880468176665,7.986418982951897e-06,0.0,0.0,0.0,0.0,0.0,0.0,0.0,0.0,0.0,9.916987827991765e-11,3.092929051625742e-10,5.040331229790978e-12,0.0,0.0,0.0,0.0,0.0,0.0,0.0,0.0,0.0
109.121,11,109,121000000,base_footprint,-1.978395264404816e-06,0.0015896501026901398,0.00019926016527094356,0.9999987166511882,0.0,0.0,0.0,0.0,0.0,0.0,0.0,0.0,0.0,-4.8972711037405744e-05,-0.00021123880509631683,7.986420894903797e-06,0.0,0.0,0.0,0.0,0.0,0.0,0.0,0.0,0.0,9.958963213823828e-11,3.1058192477667904e-10,6.4312218270429915e-12,0.0,0.0,0.0,0.0,0.0,0.0,0.0,0.0,0.0
109.122,12,109,122000000,base_footprint,-1.9783981753387537e-06,0.0015896501026872918,0.0001992619970879493,0.9999987166508232,0.0,0.0,0.0,0.0,0.0,0.0,0.0,0.0,0.0,-4.897270943669949e-05,-0.00021123880551734956,7.986422794798518e-06,0.0,0.0,0.0,0.0,0.0,0.0,0.0,0.0,0.0,9.895242366106382e-11,3.086137743672749e-10,8.644579563890638e-12,0.0,0.0,0.0,0.0,0.0,0.0,0.0,0.0,0.0
109.123,13,109,123000000,base_footprint,-1.978401086265886e-06,0.00158965010268444,0.00019926382890507403,0.9999987166504584,0.0,0.0,0.0,0.0,0.0,0.0,0.0,0.0,0.0,-4.897270782102022e-05,-0.0002112388059561384,7.98642469923949e-06,0.0,0.0,0.0,0.0,0.0,0.0,0.0,0.0,0.0,9.92135169854794e-11,3.093733820987482e-10,7.415372588176196e-12,0.0,0.0,0.0,0.0,0.0,0.0,0.0,0.0,0.0
109.123,14,109,124000000,base_footprint,-1.9784039971898573e-06,0.0015896501026815765,0.00019926566072231338,0.9999987166500933,0.0,0.0,0.0,0.0,0.0,0.0,0.0,0.0,0.0,-4.897270621269363e-05,-0.00021123880640899778,7.986426595105814e-06,0.0,0.0,0.0,0.0,0.0,0.0,0.0,0.0,0.0,9.876659940138696e-11,3.0797254756800303e-10,7.916592527589222e-12,0.0,0.0,0.0,0.0,0.0,0.0,0.0,0.0,0.0
109.125,15,109,125000000,base_footprint,-1.9784069081328847e-06,0.001589650102678719,0.00019926749253966833,0.9999987166497283,0.0,0.0,0.0,0.0,0.0,0.0,0.0,0.0,0.0,-4.8972704648853296e-05,-0.00021123880682747033,7.98642849325516e-06,0.0,0.0,0.0,0.0,0.0,0.0,0.0,0.0,0.0,9.884440048678678e-11,3.0827479136520995e-10,7.008462176265152e-12,0.0,0.0,0.0,0.0,0.0,0.0,0.0,0.0,0.0
109.126,16,109,126000000,base_footprint,-1.9784098190615934e-06,0.0015896501026758712,0.00019926932435714495,0.9999987166493632,0.0,0.0,0.0,0.0,0.0,0.0,0.0,0.0,0.0,-4.8972703017931946e-05,-0.00021123880723820278,7.986430403011074e-06,0.0,0.0,0.0,0.0,0.0,0.0,0.0,0.0,0.0,9.947661498319004e-11,3.1025781136394316e-10,8.20939855825036e-12,0.0,0.0,0.0,0.0,0.0,0.0,0.0,0.0,0.0
109.126,17,109,127000000,base_footprint,-1.9784127299895004e-06,0.0015896501026730144,0.0001992711561747462,0.9999987166489982,0.0,0.0,0.0,0.0,0.0,0.0,0.0,0.0,0.0,-4.8972701414357393e-05,-0.00021123880768710826,7.986432318962751e-06,0.0,0.0,0.0,0.0,0.0,0.0,0.0,0.0,0.0,9.984611866650202e-11,3.112201526961299e-10,8.904450090036527e-12,0.0,0.0,0.0,0.0,0.0,0.0,0.0,0.0,0.0
109.127,18,109,128000000,base_footprint,-1.978415640918746e-06,0.001589650102670161,0.000199272987992468,0.9999987166486332,0.0,0.0,0.0,0.0,0.0,0.0,0.0,0.0,0.0,-4.897269981496957e-05,-0.00021123880811074123,7.986434226722654e-06,0.0,0.0,0.0,0.0,0.0,0.0,0.0,0.0,0.0,9.938079161829245e-11,3.098861090056783e-10,9.374489519093296e-12,0.0,0.0,0.0,0.0,0.0,0.0,0.0,0.0,0.0
109.129,19,109,129000000,base_footprint,-1.9784185518627675e-06,0.0015896501026673058,0.00019927481981030817,0.9999987166482681,0.0,0.0,0.0,0.0,0.0,0.0,0.0,0.0,0.0,-4.8972698242524073e-05,-0.0002112388085446583,7.986436130306917e-06,0.0,0.0,0.0,0.0,0.0,0.0,0.0,0.0,0.0,9.915062761014522e-11,3.0916864349685395e-10,5.976538516237222e-12,0.0,0.0,0.0,0.0,0.0,0.0,0.0,0.0,0.0
109.129,20,109,130000000,base_footprint,-1.97842146278965e-06,0.0015896501026644522,0.00019927665162825891,0.9999987166479031,0.0,0.0,0.0,0.0,0.0,0.0,0.0,0.0,0.0,-4.89726966060621e-05,-0.00021123880897160914,7.9864380178206e-06,0.0,0.0,0.0,0.0,0.0,0.0,0.0,0.0,0.0,9.829323176544289e-11,3.066618052450688e-10,7.123792651267461e-12,0.0,0.0,0.0,0.0,0.0,0.0,0.0,0.0,0.0
109.13,21,109,131000000,base_footprint,-1.9784243737149333e-06,0.0015896501026615932,0.0001992784834463266,0.999998716647538,0.0,0.0,0.0,0.0,0.0,0.0,0.0,0.0,0.0,-4.897269500092624e-05,-0.0002112388094130194,7.986439918326847e-06,0.0,0.0,0.0,0.0,0.0,0.0,0.0,0.0,0.0,9.90076949492373e-11,3.0871975491994323e-10,9.05962774596699e-12,0.0,0.0,0.0,0.0,0.0,0.0,0.0,0.0,0.0
109.132,22,109,132000000,base_footprint,-1.9784272846418153e-06,0.001589650102658733,0.0001992803152645123,0.999998716647173,0.0,0.0,0.0,0.0,0.0,0.0,0.0,0.0,0.0,-4.8972693402100994e-05,-0.00021123880984569876,7.986441821149862e-06,0.0,0.0,0.0,0.0,0.0,0.0,0.0,0.0,0.0,9.912284378559823e-11,3.090854451197701e-10,9.095316650412292e-12,0.0,0.0,0.0,0.0,0.0,0.0,0.0,0.0,0.0
109.133,23,109,133000000,base_footprint,-1.9784301955751023e-06,0.0015896501026558749,0.00019928214708281908,0.999998716646808,0.0,0.0,0.0,0.0,0.0,0.0,0.0,0.0,0.0,-4.897269181288914e-05,-0.00021123881027229206,7.986443729976178e-06,0.0,0.0,0.0,0.0,0.0,0.0,0.0,0.0,0.0,9.943518198241904e-11,3.100436261206843e-10,8.130912637339457e-12,0.0,0.0,0.0,0.0,0.0,0.0,0.0,0.0,0.0
109.134,24,109,134000000,base_footprint,-1.9784331065155445e-06,0.0015896501026530195,0.00019928397890125557,0.9999987166464429,0.0,0.0,0.0,0.0,0.0,0.0,0.0,0.0,0.0,-4.897269022507286e-05,-0.00021123881069685905,7.986445656116463e-06,0.0,0.0,0.0,0.0,0.0,0.0,0.0,0.0,0.0,1.0036170944898074e-10,3.128471964822685e-10,7.1135761416116655e-12,0.0,0.0,0.0,0.0,0.0,0.0,0.0,0.0,0.0
109.136,25,109,135000000,base_footprint,-1.978436017452919e-06,0.0015896501026501659,0.00019928581071981667,0.9999987166460779,0.0,0.0,0.0,0.0,0.0,0.0,0.0,0.0,0.0,-4.8972688616679295e-05,-0.00021123881112371844,7.986447571891574e-06,0.0,0.0,0.0,0.0,0.0,0.0,0.0,0.0,0.0,9.98101093622601e-11,3.1119862069580936e-10,7.182321118172928e-12,0.0,0.0,0.0,0.0,0.0,0.0,0.0,0.0,0.0
109.136,26,109,136000000,base_footprint,-1.978438928395722e-06,0.0015896501026473144,0.00019928764253848228,0.9999987166457128,0.0,0.0,0.0,0.0,0.0,0.0,0.0,0.0,0.0,-4.897268702568644e-05,-0.0002112388115501258,7.986449447633358e-06,0.0,0.0,0.0,0.0,0.0,0.0,0.0,0.0,0.0,9.764842259099059e-11,3.046848437590357e-10,6.203387554966847e-12,0.0,0.0,0.0,0.0,0.0,0.0,0.0,0.0,0.0
109.137,27,109,137000000,base_footprint,-1.9784418393160596e-06,0.0015896501026444636,0.00019928947435727737,0.9999987166453478,0.0,0.0,0.0,0.0,0.0,0.0,0.0,0.0,0.0,-4.8972685378497166e-05,-0.00021123881197923145,7.98645137282791e-06,0.0,0.0,0.0,0.0,0.0,0.0,0.0,0.0,0.0,1.0032438436602034e-10,3.1278461648897056e-10,6.884229312763821e-12,0.0,0.0,0.0,0.0,0.0,0.0,0.0,0.0,0.0
109.138,28,109,138000000,base_footprint,-1.9784447502395827e-06,0.0015896501026416113,0.00019929130617618013,0.9999987166449827,0.0,0.0,0.0,0.0,0.0,0.0,0.0,0.0,0.0,-4.89726837830497e-05,-0.00021123881241267285,7.986453254864094e-06,0.0,0.0,0.0,0.0,0.0,0.0,0.0,0.0,0.0,9.800436967505701e-11,3.05711544866856e-10,9.080937681318471e-12,0.0,0.0,0.0,0.0,0.0,0.0,0.0,0.0,0.0
109.139,29,109,139000000,base_footprint,-1.978447661183114e-06,0.001589650102638757,0.00019929313799521195,0.9999987166446177,0.0,0.0,0.0,0.0,0.0,0.0,0.0,0.0,0.0,-4.8972682220942646e-05,-0.00021123881284669874,7.986455179956028e-06,0.0,0.0,0.0,0.0,0.0,0.0,0.0,0.0,0.0,1.0031156922547198e-10,3.126384195491007e-10,7.59478587591305e-12,0.0,0.0,0.0,0.0,0.0,0.0,0.0,0.0,0.0
109.14,30,109,140000000,base_footprint,-1.978450572121342e-06,0.0015896501026358997,0.00019929496981436278,0.9999987166442524,0.0,0.0,0.0,0.0,0.0,0.0,0.0,0.0,0.0,-4.897268060815435e-05,-0.00021123881328251285,7.986457084682225e-06,0.0,0.0,0.0,0.0,0.0,0.0,0.0,0.0,0.0,9.923223687910001e-11,3.0941488827603575e-10,9.448757824055561e-12,0.0,0.0,0.0,0.0,0.0,0.0,0.0,0.0,0.0
109.141,31,109,141000000,base_footprint,-1.9784534830456755e-06,0.0015896501026330433,0.0001992968016336327,0.9999987166438874,0.0,0.0,0.0,0.0,0.0,0.0,0.0,0.0,0.0,-4.8972678978291523e-05,-0.00021123881371195227,7.98645898922754e-06,0.0,0.0,0.0,0.0,0.0,0.0,0.0,0.0,0.0,9.921247733680902e-11,3.0941174971456035e-10,7.475915097360814e-12,0.0,0.0,0.0,0.0,0.0,0.0,0.0,0.0,0.0
109.142,32,109,142000000,base_footprint,-1.9784563939864553e-06,0.0015896501026301869,0.00019929863345302142,0.9999987166435224,0.0,0.0,0.0,0.0,0.0,0.0,0.0,0.0,0.0,-4.897267740932748e-05,-0.00021123881414239297,7.98646089373584e-06,0.0,0.0,0.0,0.0,0.0,0.0,0.0,0.0,0.0,9.920524489815163e-11,3.093130777664795e-10,8.801999038752518e-12,0.0,0.0,0.0,0.0,0.0,0.0,0.0,0.0,0.0
109.143,33,109,143000000,base_footprint,-1.978459304918303e-06,0.0015896501026273304,0.00019930046527252414,0.9999987166431573,0.0,0.0,0.0,0.0,0.0,0.0,0.0,0.0,0.0,-4.897267578928045e-05,-0.00021123881457312514,7.986462788225686e-06,0.0,0.0,0.0,0.0,0.0,0.0,0.0,0.0,0.0,9.866968481885662e-11,3.0776729737922814e-10,7.114201611718231e-12,0.0,0.0,0.0,0.0,0.0,0.0,0.0,0.0,0.0
109.147,34,109,144000000,base_footprint,-1.978462215847286e-06,0.001589650102624475,0.0001993022970921539,0.9999987166427923,0.0,0.0,0.0,0.0,0.0,0.0,0.0,0.0,0.0,-4.8972674181461856e-05,-0.00021123881500137125,7.986464708932621e-06,0.0,0.0,0.0,0.0,0.0,0.0,0.0,0.0,0.0,1.0007834454358672e-10,3.119973125404901e-10,7.807757166140757e-12,0.0,0.0,0.0,0.0,0.0,0.0,0.0,0.0,0.0
109.147,35,109,145000000,base_footprint,-1.978465126794912e-06,0.001589650102621618,0.00019930412891190353,0.9999987166424272,0.0,0.0,0.0,0.0,0.0,0.0,0.0,0.0,0.0,-4.897267261678553e-05,-0.00021123881543504207,7.986466615587004e-06,0.0,0.0,0.0,0.0,0.0,0.0,0.0,0.0,0.0,9.931600783978456e-11,3.096541391300551e-10,6.442341698525755e-12,0.0,0.0,0.0,0.0,0.0,0.0,0.0,0.0,0.0
109.147,36,109,146000000,base_footprint,-1.9784680377321645e-06,0.0015896501026187628,0.00019930596073176367,0.999998716642062,0.0,0.0,0.0,0.0,0.0,0.0,0.0,0.0,0.0,-4.897267099389809e-05,-0.00021123881586082317,7.9864685031557e-06,0.0,0.0,0.0,0.0,0.0,0.0,0.0,0.0,0.0,9.829654256979182e-11,3.0665000529802417e-10,8.326513999444745e-12,0.0,0.0,0.0,0.0,0.0,0.0,0.0,0.0,0.0
109.147,37,109,147000000,base_footprint,-1.9784709486644574e-06,0.0015896501026159081,0.0001993077925517438,0.9999987166416969,0.0,0.0,0.0,0.0,0.0,0.0,0.0,0.0,0.0,-4.8972669381907784e-05,-0.00021123881629122064,7.986470409664954e-06,0.0,0.0,0.0,0.0,0.0,0.0,0.0,0.0,0.0,9.9319088572712e-11,3.0970306228498895e-10,8.534222244776562e-12,0.0,0.0,0.0,0.0,0.0,0.0,0.0,0.0,0.0
109.148,38,109,148000000,base_footprint,-1.978473859598133e-06,0.0015896501026130556,0.00019930962437183887,0.9999987166413318,0.0,0.0,0.0,0.0,0.0,0.0,0.0,0.0,0.0,-4.8972667782652164e-05,-0.0002112388167171358,7.986472306176866e-06,0.0,0.0,0.0,0.0,0.0,0.0,0.0,0.0,0.0,9.87664317964537e-11,3.0806329250368587e-10,5.945286204858989e-12,0.0,0.0,0.0,0.0,0.0,0.0,0.0,0.0,0.0
109.149,39,109,149000000,base_footprint,-1.978476770535383e-06,0.0015896501026102033,0.00019931145619206064,0.9999987166409666,0.0,0.0,0.0,0.0,0.0,0.0,0.0,0.0,0.0,-4.8972666187726137e-05,-0.0002112388171471112,7.98647422626714e-06,0.0,0.0,0.0,0.0,0.0,0.0,0.0,0.0,0.0,1.0005095753422939e-10,3.118776414573679e-10,9.733377230321549e-12,0.0,0.0,0.0,0.0,0.0,0.0,0.0,0.0,0.0
109.15,40,109,150000000,base_footprint,-1.9784796814671608e-06,0.0015896501026073484,0.00019931328801240243,0.9999987166406015,0.0,0.0,0.0,0.0,0.0,0.0,0.0,0.0,0.0,-4.8972664574708664e-05,-0.00021123881758272574,7.98647613285924e-06,0.0,0.0,0.0,0.0,0.0,0.0,0.0,0.0,0.0,9.932794118573932e-11,3.097176751434407e-10,8.052575430029774e-12,0.0,0.0,0.0,0.0,0.0,0.0,0.0,0.0,0.0
109.151,41,109,151000000,base_footprint,-1.9784825924095236e-06,0.0015896501026044934,0.00019931511983285792,0.9999987166402365,0.0,0.0,0.0,0.0,0.0,0.0,0.0,0.0,0.0,-4.897266299395384e-05,-0.00021123881801428347,7.986478027002203e-06,0.0,0.0,0.0,0.0,0.0,0.0,0.0,0.0,0.0,9.86485010824885e-11,3.076513152461528e-10,8.203159539151906e-12,0.0,0.0,0.0,0.0,0.0,0.0,0.0,0.0,0.0
109.152,42,109,152000000,base_footprint,-1.978485503353198e-06,0.0015896501026016327,0.00019931695165342956,0.9999987166398714,0.0,0.0,0.0,0.0,0.0,0.0,0.0,0.0,0.0,-4.897266139442743e-05,-0.0002112388184553895,7.986479926038254e-06,0.0,0.0,0.0,0.0,0.0,0.0,0.0,0.0,0.0,9.892662385399625e-11,3.084728640124008e-10,8.826903882322509e-12,0.0,0.0,0.0,0.0,0.0,0.0,0.0,0.0,0.0
109.153,43,109,153000000,base_footprint,-1.978488414285419e-06,0.001589650102598777,0.00019931878347411534,0.9999987166395062,0.0,0.0,0.0,0.0,0.0,0.0,0.0,0.0,0.0,-4.89726597694363e-05,-0.00021123881887550445,7.986481820812914e-06,0.0,0.0,0.0,0.0,0.0,0.0,0.0,0.0,0.0,9.867431880634646e-11,3.0782113538502514e-10,6.920370925449367e-12,0.0,0.0,0.0,0.0,0.0,0.0,0.0,0.0,0.0
109.154,44,109,154000000,base_footprint,-1.978491325212146e-06,0.0015896501025959237,0.0001993206152949231,0.9999987166391411,0.0,0.0,0.0,0.0,0.0,0.0,0.0,0.0,0.0,-4.897265815641781e-05,-0.00021123881930144308,7.986483731313258e-06,0.0,0.0,0.0,0.0,0.0,0.0,0.0,0.0,0.0,9.952767891946717e-11,3.1035124039292983e-10,7.870346249639022e-12,0.0,0.0,0.0,0.0,0.0,0.0,0.0,0.0,0.0
109.155,45,109,155000000,base_footprint,-1.9784942361584926e-06,0.0015896501025930712,0.0001993224471158595,0.9999987166387762,0.0,0.0,0.0,0.0,0.0,0.0,0.0,0.0,0.0,-4.897265659366649e-05,-0.00021123881973098317,7.986485655366211e-06,0.0,0.0,0.0,0.0,0.0,0.0,0.0,0.0,0.0,1.0024764924085537e-10,3.124706855514837e-10,6.333595521541927e-12,0.0,0.0,0.0,0.0,0.0,0.0,0.0,0.0,0.0
109.156,46,109,156000000,base_footprint,-1.9784971471112367e-06,0.0015896501025902232,0.00019932427893690465,0.999998716638411,0.0,0.0,0.0,0.0,0.0,0.0,0.0,0.0,0.0,-4.897265500437637e-05,-0.00021123882015160994,7.986487539772588e-06,0.0,0.0,0.0,0.0,0.0,0.0,0.0,0.0,0.0,9.81046805783949e-11,3.0608629095645244e-10,4.9282981826024176e-12,0.0,0.0,0.0,0.0,0.0,0.0,0.0,0.0,0.0
109.157,47,109,157000000,base_footprint,-1.9785000580367403e-06,0.0015896501025873737,0.00019932611075807648,0.9999987166380458,0.0,0.0,0.0,0.0,0.0,0.0,0.0,0.0,0.0,-4.8972653347641394e-05,-0.00021123882058490866,7.98648945929367e-06,0.0,0.0,0.0,0.0,0.0,0.0,0.0,0.0,0.0,1.0003342643900413e-10,3.118797579349898e-10,9.59958749386772e-12,0.0,0.0,0.0,0.0,0.0,0.0,0.0,0.0,0.0
109.157,48,109,158000000,base_footprint,-1.9785029689701936e-06,0.001589650102584521,0.0001993279425793599,0.9999987166376807,0.0,0.0,0.0,0.0,0.0,0.0,0.0,0.0,0.0,-4.897265176172895e-05,-0.0002112388210221341,7.986491349275312e-06,0.0,0.0,0.0,0.0,0.0,0.0,0.0,0.0,0.0,9.843325771138865e-11,3.0698461983137697e-10,8.805358529354028e-12,0.0,0.0,0.0,0.0,0.0,0.0,0.0,0.0,0.0
109.159,49,109,159000000,base_footprint,-1.9785058799121143e-06,0.0015896501025816623,0.00019932977440076402,0.9999987166373155,0.0,0.0,0.0,0.0,0.0,0.0,0.0,0.0,0.0,-4.897265017659098e-05,-0.0002112388214642426,7.986493257525077e-06,0.0,0.0,0.0,0.0,0.0,0.0,0.0,0.0,0.0,9.942516705694837e-11,3.0994415576081185e-10,1.0146676602086167e-11,0.0,0.0,0.0,0.0,0.0,0.0,0.0,0.0,0.0
109.16,50,109,160000000,base_footprint,-1.9785087908468293e-06,0.001589650102578803,0.00019933160622229008,0.9999987166369504,0.0,0.0,0.0,0.0,0.0,0.0,0.0,0.0,0.0,-4.89726485600305e-05,-0.00021123882189582973,7.9864951679651e-06,0.0,0.0,0.0,0.0,0.0,0.0,0.0,0.0,0.0,9.953471124362797e-11,3.1034670565822176e-10,9.06436177804828e-12,0.0,0.0,0.0,0.0,0.0,0.0,0.0,0.0,0.0
109.161,51,109,161000000,base_footprint,-1.9785117017904797e-06,0.001589650102575939,0.00019933343804393527,0.9999987166365852,0.0,0.0,0.0,0.0,0.0,0.0,0.0,0.0,0.0,-4.8972646975886464e-05,-0.00021123882233573777,7.98649707300169e-06,0.0,0.0,0.0,0.0,0.0,0.0,0.0,0.0,0.0,9.923999409345757e-11,3.09421703213365e-10,6.959012812751889e-12,0.0,0.0,0.0,0.0,0.0,0.0,0.0,0.0,0.0
109.162,52,109,162000000,base_footprint,-1.9785146127296806e-06,0.0015896501025730765,0.00019933526986569915,0.9999987166362201,0.0,0.0,0.0,0.0,0.0,0.0,0.0,0.0,0.0,-4.8972645364843e-05,-0.00021123882276315466,7.986498976920412e-06,0.0,0.0,0.0,0.0,0.0,0.0,0.0,0.0,0.0,9.917337907205677e-11,3.092815175344138e-10,7.443134222910658e-12,0.0,0.0,0.0,0.0,0.0,0.0,0.0,0.0,0.0
109.163,53,109,163000000,base_footprint,-1.97851752366012e-06,0.0015896501025702214,0.00019933710168758297,0.9999987166358549,0.0,0.0,0.0,0.0,0.0,0.0,0.0,0.0,0.0,-4.897264374523391e-05,-0.00021123882317879535,7.98650088328172e-06,0.0,0.0,0.0,0.0,0.0,0.0,0.0,0.0,0.0,9.929366511987255e-11,3.0969045399671827e-10,7.219281165583453e-12,0.0,0.0,0.0,0.0,0.0,0.0,0.0,0.0,0.0
109.164,54,109,164000000,base_footprint,-1.9785204346010618e-06,0.0015896501025673693,0.00019933893350958197,0.9999987166354898,0.0,0.0,0.0,0.0,0.0,0.0,0.0,0.0,0.0,-4.897264216432791e-05,-0.00021123882360287718,7.986502780456135e-06,0.0,0.0,0.0,0.0,0.0,0.0,0.0,0.0,0.0,9.880193419990182e-11,3.081427355891331e-10,7.483426397317762e-12,0.0,0.0,0.0,0.0,0.0,0.0,0.0,0.0,0.0
109.165,55,109,165000000,base_footprint,-1.9785233455392695e-06,0.0015896501025645185,0.0001993407653316968,0.9999987166351246,0.0,0.0,0.0,0.0,0.0,0.0,0.0,0.0,0.0,-4.897264055671565e-05,-0.00021123882403071678,7.986504678747214e-06,0.0,0.0,0.0,0.0,0.0,0.0,0.0,0.0,0.0,9.886974673596292e-11,3.0836449948022296e-10,7.349472764601339e-12,0.0,0.0,0.0,0.0,0.0,0.0,0.0,0.0,0.0
109.166,56,109,166000000,base_footprint,-1.9785262564802924e-06,0.0015896501025616711,0.00019934259715393318,0.9999987166347595,0.0,0.0,0.0,0.0,0.0,0.0,0.0,0.0,0.0,-4.8972638960304275e-05,-0.00021123882445421598,7.986506588512261e-06,0.0,0.0,0.0,0.0,0.0,0.0,0.0,0.0,0.0,9.947748833251634e-11,3.1020672844793643e-10,6.181581971222126e-12,0.0,0.0,0.0,0.0,0.0,0.0,0.0,0.0,0.0
109.167,57,109,167000000,base_footprint,-1.9785291674136064e-06,0.001589650102558816,0.00019934442897629387,0.9999987166343943,0.0,0.0,0.0,0.0,0.0,0.0,0.0,0.0,0.0,-4.8972637342711774e-05,-0.00021123882490028462,7.986508503632608e-06,0.0,0.0,0.0,0.0,0.0,0.0,0.0,0.0,0.0,9.980273013906907e-11,3.111066848811537e-10,9.475674463366229e-12,0.0,0.0,0.0,0.0,0.0,0.0,0.0,0.0,0.0
109.168,58,109,168000000,base_footprint,-1.978532078352513e-06,0.0015896501025559587,0.00019934626079877747,0.9999987166340292,0.0,0.0,0.0,0.0,0.0,0.0,0.0,0.0,0.0,-4.897263575192452e-05,-0.00021123882533530047,7.986510416238122e-06,0.0,0.0,0.0,0.0,0.0,0.0,0.0,0.0,0.0,9.964630319355488e-11,3.106583277982895e-10,7.787073194343022e-12,0.0,0.0,0.0,0.0,0.0,0.0,0.0,0.0,0.0
109.169,59,109,169000000,base_footprint,-1.9785349893053977e-06,0.001589650102553101,0.00019934809262137738,0.999998716633664,0.0,0.0,0.0,0.0,0.0,0.0,0.0,0.0,0.0,-4.8972634177841295e-05,-0.00021123882576665646,7.986512315729554e-06,0.0,0.0,0.0,0.0,0.0,0.0,0.0,0.0,0.0,9.89348513184021e-11,3.085077938629188e-10,8.119513325980044e-12,0.0,0.0,0.0,0.0,0.0,0.0,0.0,0.0,0.0
109.17,60,109,170000000,base_footprint,-1.9785379002523184e-06,0.0015896501025502445,0.00019934992444408213,0.9999987166332989,0.0,0.0,0.0,0.0,0.0,0.0,0.0,0.0,0.0,-4.897263256384223e-05,-0.00021123882619429298,7.986514192021528e-06,0.0,0.0,0.0,0.0,0.0,0.0,0.0,0.0,0.0,9.768844101460143e-11,3.048092777500269e-10,7.988956411208888e-12,0.0,0.0,0.0,0.0,0.0,0.0,0.0,0.0,0.0
109.171,61,109,171000000,base_footprint,-1.978540811194715e-06,0.0015896501025473905,0.00019935175626690414,0.9999987166329336,0.0,0.0,0.0,0.0,0.0,0.0,0.0,0.0,0.0,-4.897263095278681e-05,-0.0002112388266192837,7.986516093124441e-06,0.0,0.0,0.0,0.0,0.0,0.0,0.0,0.0,0.0,9.902096259689156e-11,3.0882562300417976e-10,8.120979593527452e-12,0.0,0.0,0.0,0.0,0.0,0.0,0.0,0.0,0.0
109.172,62,109,172000000,base_footprint,-1.9785437221286395e-06,0.001589650102544533,0.0001993535880898491,0.9999987166325683,0.0,0.0,0.0,0.0,0.0,0.0,0.0,0.0,0.0,-4.897262933373043e-05,-0.00021123882705671487,7.986518005527991e-06,0.0,0.0,0.0,0.0,0.0,0.0,0.0,0.0,0.0,9.964252681681888e-11,3.106686671606277e-10,7.751346944072199e-12,0.0,0.0,0.0,0.0,0.0,0.0,0.0,0.0,0.0
109.173,63,109,173000000,base_footprint,-1.978546633065111e-06,0.0015896501025416704,0.0001993554199129225,0.9999987166322032,0.0,0.0,0.0,0.0,0.0,0.0,0.0,0.0,0.0,-4.897262773672637e-05,-0.00021123882749773923,7.986519929074011e-06,0.0,0.0,0.0,0.0,0.0,0.0,0.0,0.0,0.0,1.0024703505879556e-10,3.1244070464523443e-10,9.269991011912044e-12,0.0,0.0,0.0,0.0,0.0,0.0,0.0,0.0,0.0
109.174,64,109,174000000,base_footprint,-1.978549544012613e-06,0.001589650102538811,0.00019935725173610903,0.999998716631838,0.0,0.0,0.0,0.0,0.0,0.0,0.0,0.0,0.0,-4.8972626156806985e-05,-0.00021123882792217766,7.986521822132958e-06,0.0,0.0,0.0,0.0,0.0,0.0,0.0,0.0,0.0,9.858308059384085e-11,3.074742028548973e-10,8.2250727438111e-12,0.0,0.0,0.0,0.0,0.0,0.0,0.0,0.0,0.0
109.175,65,109,175000000,base_footprint,-1.978552454948744e-06,0.001589650102535959,0.00019935908355942262,0.9999987166314729,0.0,0.0,0.0,0.0,0.0,0.0,0.0,0.0,0.0,-4.897262453179374e-05,-0.00021123882833690052,7.98652374272279e-06,0.0,0.0,0.0,0.0,0.0,0.0,0.0,0.0,0.0,1.0005673181665949e-10,3.120044581713474e-10,6.356031030551475e-12,0.0,0.0,0.0,0.0,0.0,0.0,0.0,0.0,0.0
109.176,66,109,176000000,base_footprint,-1.9785553658864943e-06,0.001589650102533106,0.00019936091538285742,0.9999987166311077,0.0,0.0,0.0,0.0,0.0,0.0,0.0,0.0,0.0,-4.897262293301346e-05,-0.000211238828769624,7.986525651841009e-06,0.0,0.0,0.0,0.0,0.0,0.0,0.0,0.0,0.0,9.946042263159325e-11,3.101052558511028e-10,8.613778697209443e-12,0.0,0.0,0.0,0.0,0.0,0.0,0.0,0.0,0.0
109.177,67,109,177000000,base_footprint,-1.9785582768248227e-06,0.001589650102530244,0.00019936274720640354,0.9999987166307426,0.0,0.0,0.0,0.0,0.0,0.0,0.0,0.0,0.0,-4.897262133216616e-05,-0.00021123882921834998,7.986527541167086e-06,0.0,0.0,0.0,0.0,0.0,0.0,0.0,0.0,0.0,9.841192708595272e-11,3.0690136885336383e-10,8.879932054948276e-12,0.0,0.0,0.0,0.0,0.0,0.0,0.0,0.0,0.0
109.178,68,109,178000000,base_footprint,-1.9785611877725367e-06,0.001589650102527386,0.00019936457903008063,0.9999987166303772,0.0,0.0,0.0,0.0,0.0,0.0,0.0,0.0,0.0,-4.897261974883041e-05,-0.00021123882963956558,7.98652946991359e-06,0.0,0.0,0.0,0.0,0.0,0.0,0.0,0.0,0.0,1.0048979634551505e-10,3.132628490455723e-10,4.6844061785165896e-12,0.0,0.0,0.0,0.0,0.0,0.0,0.0,0.0,0.0
109.179,69,109,179000000,base_footprint,-1.9785640987200254e-06,0.0015896501025245318,0.00019936641085386225,0.999998716630012,0.0,0.0,0.0,0.0,0.0,0.0,0.0,0.0,0.0,-4.89726181463987e-05,-0.00021123883006371583,7.986531345484646e-06,0.0,0.0,0.0,0.0,0.0,0.0,0.0,0.0,0.0,9.764342015410195e-11,3.0467452132507496e-10,7.630207071554288e-12,0.0,0.0,0.0,0.0,0.0,0.0,0.0,0.0,0.0
109.18,70,109,180000000,base_footprint,-1.9785670096530574e-06,0.001589650102521683,0.00019936824267776434,0.9999987166296469,0.0,0.0,0.0,0.0,0.0,0.0,0.0,0.0,0.0,-4.8972616515368804e-05,-0.00021123883048315407,7.98653325282974e-06,0.0,0.0,0.0,0.0,0.0,0.0,0.0,0.0,0.0,9.934737898615559e-11,3.098675556624914e-10,5.7881858114317296e-12,0.0,0.0,0.0,0.0,0.0,0.0,0.0,0.0,0.0
109.181,71,109,181000000,base_footprint,-1.978569920590895e-06,0.0015896501025188428,0.00019937007450178138,0.9999987166292816,0.0,0.0,0.0,0.0,0.0,0.0,0.0,0.0,0.0,-4.897261492303651e-05,-0.00021123883089635835,7.986535149429237e-06,0.0,0.0,0.0,0.0,0.0,0.0,0.0,0.0,0.0,9.875735533576611e-11,3.080669416777833e-10,6.032444564096584e-12,0.0,0.0,0.0,0.0,0.0,0.0,0.0,0.0,0.0
109.182,72,109,182000000,base_footprint,-1.978572831530149e-06,0.0015896501025159852,0.00019937190632592186,0.9999987166289164,0.0,0.0,0.0,0.0,0.0,0.0,0.0,0.0,0.0,-4.897261332378625e-05,-0.00021123883136145137,7.986537063015994e-06,0.0,0.0,0.0,0.0,0.0,0.0,0.0,0.0,0.0,9.974111671096125e-11,3.108303732658258e-10,1.1099296341068319e-11,0.0,0.0,0.0,0.0,0.0,0.0,0.0,0.0,0.0
109.183,73,109,183000000,base_footprint,-1.9785757424841686e-06,0.0015896501025131312,0.00019937373815018605,0.9999987166285513,0.0,0.0,0.0,0.0,0.0,0.0,0.0,0.0,0.0,-4.897261175130235e-05,-0.00021123883178569193,7.986538977302862e-06,0.0,0.0,0.0,0.0,0.0,0.0,0.0,0.0,0.0,9.973258375528462e-11,3.109030219237778e-10,1.0901787274935303e-11,0.0,0.0,0.0,0.0,0.0,0.0,0.0,0.0,0.0
109.184,74,109,184000000,base_footprint,-1.978578653428593e-06,0.0015896501025102771,0.00019937556997456387,0.9999987166281861,0.0,0.0,0.0,0.0,0.0,0.0,0.0,0.0,0.0,-4.897261012987562e-05,-0.00021123883221525497,7.986540871173772e-06,0.0,0.0,0.0,0.0,0.0,0.0,0.0,0.0,0.0,9.863574007922077e-11,3.0766906657010735e-10,7.240260884494018e-12,0.0,0.0,0.0,0.0,0.0,0.0,0.0,0.0,0.0
109.185,75,109,185000000,base_footprint,-1.978581564373216e-06,0.00158965010250742,0.00019937740179907265,0.9999987166278208,0.0,0.0,0.0,0.0,0.0,0.0,0.0,0.0,0.0,-4.897260852820331e-05,-0.00021123883265168486,7.98654279980055e-06,0.0,0.0,0.0,0.0,0.0,0.0,0.0,0.0,0.0,1.0051676713259104e-10,3.1327130465105915e-10,9.368571763258702e-12,0.0,0.0,0.0,0.0,0.0,0.0,0.0,0.0,0.0
109.186,76,109,186000000,base_footprint,-1.978584475313611e-06,0.0015896501025045523,0.00019937923362370216,0.9999987166274555,0.0,0.0,0.0,0.0,0.0,0.0,0.0,0.0,0.0,-4.897260691755318e-05,-0.00021123883310340314,7.986544707811863e-06,0.0,0.0,0.0,0.0,0.0,0.0,0.0,0.0,0.0,9.941961466948226e-11,3.099439884262399e-10,7.899822877890654e-12,0.0,0.0,0.0,0.0,0.0,0.0,0.0,0.0,0.0
109.187,77,109,187000000,base_footprint,-1.9785873862516317e-06,0.0015896501025016772,0.00019938106544845175,0.9999987166270903,0.0,0.0,0.0,0.0,0.0,0.0,0.0,0.0,0.0,-4.8972605310781247e-05,-0.00021123883354879204,7.986546614587967e-06,0.0,0.0,0.0,0.0,0.0,0.0,0.0,0.0,0.0,9.934691980455703e-11,3.0973801192473507e-10,8.199377567211269e-12,0.0,0.0,0.0,0.0,0.0,0.0,0.0,0.0,0.0
109.188,78,109,188000000,base_footprint,-1.978590297199304e-06,0.001589650102498814,0.00019938289727330523,0.999998716626725,0.0,0.0,0.0,0.0,0.0,0.0,0.0,0.0,0.0,-4.8972603728182537e-05,-0.00021123883395527245,7.986548489127632e-06,0.0,0.0,0.0,0.0,0.0,0.0,0.0,0.0,0.0,9.755634380948029e-11,3.0447752037518176e-10,4.517216395535827e-12,0.0,0.0,0.0,0.0,0.0,0.0,0.0,0.0,0.0
109.189,79,109,189000000,base_footprint,-1.978593208141672e-06,0.0015896501024959663,0.0001993847290982734,0.9999987166263598,0.0,0.0,0.0,0.0,0.0,0.0,0.0,0.0,0.0,-4.8972602115531464e-05,-0.00021123883435476213,7.986550384963717e-06,0.0,0.0,0.0,0.0,0.0,0.0,0.0,0.0,0.0,9.870586142280109e-11,3.079745471150311e-10,6.181158675713429e-12,0.0,0.0,0.0,0.0,0.0,0.0,0.0,0.0,0.0
109.19,80,109,190000000,base_footprint,-1.9785961190921402e-06,0.001589650102493124,0.00019938656092336864,0.9999987166259945,0.0,0.0,0.0,0.0,0.0,0.0,0.0,0.0,0.0,-4.897260052965688e-05,-0.00021123883477430116,7.98655230594326e-06,0.0,0.0,0.0,0.0,0.0,0.0,0.0,0.0,0.0,1.0007800768304806e-10,3.120081028255343e-10,7.07908238646911e-12,0.0,0.0,0.0,0.0,0.0,0.0,0.0,0.0,0.0
109.191,81,109,191000000,base_footprint,-1.9785990300337382e-06,0.0015896501024902736,0.00019938839274858167,0.9999987166256294,0.0,0.0,0.0,0.0,0.0,0.0,0.0,0.0,0.0,-4.897259890976669e-05,-0.00021123883522175768,7.9865542079108e-06,0.0,0.0,0.0,0.0,0.0,0.0,0.0,0.0,0.0,9.909623614098602e-11,3.08978520652328e-10,9.306835567764775e-12,0.0,0.0,0.0,0.0,0.0,0.0,0.0,0.0,0.0
109.192,82,109,192000000,base_footprint,-1.978601940974009e-06,0.0015896501024874204,0.0001993902245739202,0.9999987166252642,0.0,0.0,0.0,0.0,0.0,0.0,0.0,0.0,0.0,-4.897259730504507e-05,-0.0002112388356570536,7.986556125639129e-06,0.0,0.0,0.0,0.0,0.0,0.0,0.0,0.0,0.0,9.991968247622675e-11,3.1150986681467344e-10,6.303044630022373e-12,0.0,0.0,0.0,0.0,0.0,0.0,0.0,0.0,0.0
109.193,83,109,193000000,base_footprint,-1.9786048519242183e-06,0.0015896501024845683,0.00019939205639936755,0.9999987166248989,0.0,0.0,0.0,0.0,0.0,0.0,0.0,0.0,0.0,-4.897259572298037e-05,-0.00021123883608543397,7.986558010152992e-06,0.0,0.0,0.0,0.0,0.0,0.0,0.0,0.0,0.0,9.813526309502652e-11,3.0609278163886307e-10,1.0720783459619058e-11,0.0,0.0,0.0,0.0,0.0,0.0,0.0,0.0,0.0
109.194,84,109,194000000,base_footprint,-1.978607762872114e-06,0.001589650102481711,0.00019939388822493568,0.9999987166245337,0.0,0.0,0.0,0.0,0.0,0.0,0.0,0.0,0.0,-4.897259411618734e-05,-0.00021123883652592894,7.98655991834015e-06,0.0,0.0,0.0,0.0,0.0,0.0,0.0,0.0,0.0,9.941975211421574e-11,3.0996697086353873e-10,8.884066013058817e-12,0.0,0.0,0.0,0.0,0.0,0.0,0.0,0.0,0.0
109.195,85,109,195000000,base_footprint,-1.9786106738172577e-06,0.001589650102478852,0.00019939572005063337,0.9999987166241684,0.0,0.0,0.0,0.0,0.0,0.0,0.0,0.0,0.0,-4.897259250851163e-05,-0.00021123883695988604,7.986561844105431e-06,0.0,0.0,0.0,0.0,0.0,0.0,0.0,0.0,0.0,1.0036138608775248e-10,3.128167023043183e-10,9.398917410737712e-12,0.0,0.0,0.0,0.0,0.0,0.0,0.0,0.0,0.0
109.195,86,109,196000000,base_footprint,-1.978613584768169e-06,0.0015896501024759847,0.00019939755187644133,0.9999987166238031,0.0,0.0,0.0,0.0,0.0,0.0,0.0,0.0,0.0,-4.897259091811339e-05,-0.00021123883740671525,7.986563731333381e-06,0.0,0.0,0.0,0.0,0.0,0.0,0.0,0.0,0.0,9.828929329852459e-11,3.065452305735946e-10,6.918768252784358e-12,0.0,0.0,0.0,0.0,0.0,0.0,0.0,0.0,0.0
109.197,87,109,197000000,base_footprint,-1.9786164957080113e-06,0.0015896501024731285,0.00019939938370237053,0.9999987166234379,0.0,0.0,0.0,0.0,0.0,0.0,0.0,0.0,0.0,-4.897258929378373e-05,-0.00021123883781521723,7.986565640287438e-06,0.0,0.0,0.0,0.0,0.0,0.0,0.0,0.0,0.0,9.942431803172876e-11,3.101179843445925e-10,6.537845762290533e-12,0.0,0.0,0.0,0.0,0.0,0.0,0.0,0.0,0.0
109.198,88,109,198000000,base_footprint,-1.978619406642749e-06,0.0015896501024702753,0.0001994012155284152,0.9999987166230726,0.0,0.0,0.0,0.0,0.0,0.0,0.0,0.0,0.0,-4.8972587681599326e-05,-0.00021123883823955764,7.986567537813442e-06,0.0,0.0,0.0,0.0,0.0,0.0,0.0,0.0,0.0,9.882591986516014e-11,3.082473363916025e-10,7.349598970846813e-12,0.0,0.0,0.0,0.0,0.0,0.0,0.0,0.0,0.0
109.199,89,109,199000000,base_footprint,-1.9786223175847835e-06,0.001589650102467424,0.00019940304735458284,0.9999987166227073,0.0,0.0,0.0,0.0,0.0,0.0,0.0,0.0,0.0,-4.897258609416485e-05,-0.0002112388386660109,7.986569450507681e-06,0.0,0.0,0.0,0.0,0.0,0.0,0.0,0.0,0.0,9.963590866054851e-11,3.1066779132277476e-10,6.0216230034375514e-12,0.0,0.0,0.0,0.0,0.0,0.0,0.0,0.0,0.0
109.201,90,109,200000000,base_footprint,-1.9786252285333356e-06,0.0015896501024645743,0.00019940487918087695,0.9999987166223421,0.0,0.0,0.0,0.0,0.0,0.0,0.0,0.0,0.0,-4.8972584505029194e-05,-0.00021123883909333687,7.986571370232526e-06,0.0,0.0,0.0,0.0,0.0,0.0,0.0,0.0,0.0,1.0002843843203184e-10,3.118094688143584e-10,9.978208830848254e-12,0.0,0.0,0.0,0.0,0.0,0.0,0.0,0.0,0.0
109.201,91,109,201000000,base_footprint,-1.9786281394829207e-06,0.0015896501024617086,0.00019940671100727634,0.9999987166219768,0.0,0.0,0.0,0.0,0.0,0.0,0.0,0.0,0.0,-4.897258290511836e-05,-0.0002112388395559258,7.986573247421212e-06,0.0,0.0,0.0,0.0,0.0,0.0,0.0,0.0,0.0,9.777253029861545e-11,3.0493291003902203e-10,8.886175153168152e-12,0.0,0.0,0.0,0.0,0.0,0.0,0.0,0.0,0.0
109.202,92,109,202000000,base_footprint,-1.9786310504293015e-06,0.001589650102458858,0.0001994085428337996,0.9999987166216114,0.0,0.0,0.0,0.0,0.0,0.0,0.0,0.0,0.0,-4.89725812966247e-05,-0.00021123883995543063,7.98657516180279e-06,0.0,0.0,0.0,0.0,0.0,0.0,0.0,0.0,0.0,9.970367383474863e-11,3.109735271792986e-10,6.266348979775163e-12,0.0,0.0,0.0,0.0,0.0,0.0,0.0,0.0,0.0
109.203,93,109,203000000,base_footprint,-1.9786339613775758e-06,0.0015896501024560048,0.0001994103746604428,0.9999987166212461,0.0,0.0,0.0,0.0,0.0,0.0,0.0,0.0,0.0,-4.8972579698349014e-05,-0.00021123884039110492,7.986577068396136e-06,0.0,0.0,0.0,0.0,0.0,0.0,0.0,0.0,0.0,9.932594596369464e-11,3.0969544694775924e-10,8.236537841494323e-12,0.0,0.0,0.0,0.0,0.0,0.0,0.0,0.0,0.0
109.204,94,109,204000000,base_footprint,-1.978636872319276e-06,0.0015896501024531505,0.00019941220648720526,0.999998716620881,0.0,0.0,0.0,0.0,0.0,0.0,0.0,0.0,0.0,-4.8972578083034856e-05,-0.00021123884082478112,7.986578973273981e-06,0.0,0.0,0.0,0.0,0.0,0.0,0.0,0.0,0.0,9.923172404840577e-11,3.0944343343212213e-10,7.384827525108243e-12,0.0,0.0,0.0,0.0,0.0,0.0,0.0,0.0,0.0
109.205,95,109,205000000,base_footprint,-1.978639783273297e-06,0.001589650102450297,0.00019941403831407836,0.9999987166205156,0.0,0.0,0.0,0.0,0.0,0.0,0.0,0.0,0.0,-4.8972576505807385e-05,-0.00021123884125276784,7.986580861578625e-06,0.0,0.0,0.0,0.0,0.0,0.0,0.0,0.0,0.0,9.832767792908523e-11,3.066998929488954e-10,7.539422117648994e-12,0.0,0.0,0.0,0.0,0.0,0.0,0.0,0.0,0.0
109.206,96,109,206000000,base_footprint,-1.9786426942264725e-06,0.0015896501024474314,0.0001994158701410693,0.9999987166201503,0.0,0.0,0.0,0.0,0.0,0.0,0.0,0.0,0.0,-4.89725749019576e-05,-0.00021123884170728562,7.986582763887466e-06,0.0,0.0,0.0,0.0,0.0,0.0,0.0,0.0,0.0,9.911576448479483e-11,3.090098982105809e-10,8.528671332677446e-12,0.0,0.0,0.0,0.0,0.0,0.0,0.0,0.0,0.0
109.207,97,109,207000000,base_footprint,-1.978645605171408e-06,0.0015896501024445697,0.00019941770196818732,0.999998716619785,0.0,0.0,0.0,0.0,0.0,0.0,0.0,0.0,0.0,-4.897257328335069e-05,-0.00021123884213015845,7.986584684586504e-06,0.0,0.0,0.0,0.0,0.0,0.0,0.0,0.0,0.0,1.0007587802181111e-10,3.120123372729063e-10,8.298009529074786e-12,0.0,0.0,0.0,0.0,0.0,0.0,0.0,0.0,0.0
109.208,98,109,208000000,base_footprint,-1.9786485161044165e-06,0.001589650102441721,0.00019941953379542488,0.9999987166194197,0.0,0.0,0.0,0.0,0.0,0.0,0.0,0.0,0.0,-4.897257165739615e-05,-0.00021123884253440874,7.986586590077704e-06,0.0,0.0,0.0,0.0,0.0,0.0,0.0,0.0,0.0,9.923529649787026e-11,3.095589943964148e-10,6.8494135546077765e-12,0.0,0.0,0.0,0.0,0.0,0.0,0.0,0.0,0.0
109.209,99,109,209000000,base_footprint,-1.978651427048526e-06,0.0015896501024388735,0.00019942136562277503,0.9999987166190545,0.0,0.0,0.0,0.0,0.0,0.0,0.0,0.0,0.0,-4.897257007771462e-05,-0.0002112388429625739,7.986588482083436e-06,0.0,0.0,0.0,0.0,0.0,0.0,0.0,0.0,0.0,9.852394203379284e-11,3.0730339274935466e-10,6.425923955939973e-12,0.0,0.0,0.0,0.0,0.0,0.0,0.0,0.0,0.0
109.21,100,109,210000000,base_footprint,-1.9786543380007034e-06,0.0015896501024360295,0.00019942319745023818,0.999998716618689,0.0,0.0,0.0,0.0,0.0,0.0,0.0,0.0,0.0,-4.8972568491842344e-05,-0.00021123884338533912,7.986590374959534e-06,0.0,0.0,0.0,0.0,0.0,0.0,0.0,0.0,0.0,9.856730772225061e-11,3.0745388488645994e-10,6.716481788879506e-12,0.0,0.0,0.0,0.0,0.0,0.0,0.0,0.0,0.0
109.211,101,109,211000000,base_footprint,-1.9786572489365314e-06,0.001589650102433172,0.00019942502927783342,0.9999987166183237,0.0,0.0,0.0,0.0,0.0,0.0,0.0,0.0,0.0,-4.8972566856802456e-05,-0.00021123884384383152,7.986592305400006e-06,0.0,0.0,0.0,0.0,0.0,0.0,0.0,0.0,0.0,1.0064820346898713e-10,3.1361597935958124e-10,1.1237082254279474e-11,0.0,0.0,0.0,0.0,0.0,0.0,0.0,0.0,0.0
109.212,102,109,212000000,base_footprint,-1.9786601598833302e-06,0.0015896501024303081,0.00019942686110555497,0.9999987166179585,0.0,0.0,0.0,0.0,0.0,0.0,0.0,0.0,0.0,-4.897256527670385e-05,-0.00021123884428659,7.986594224921594e-06,0.0,0.0,0.0,0.0,0.0,0.0,0.0,0.0,0.0,1.0003023455141901e-10,3.117626784225275e-10,9.561691369571007e-12,0.0,0.0,0.0,0.0,0.0,0.0,0.0,0.0,0.0
109.213,103,109,213000000,base_footprint,-1.9786630708422856e-06,0.0015896501024274482,0.00019942869293339038,0.9999987166175932,0.0,0.0,0.0,0.0,0.0,0.0,0.0,0.0,0.0,-4.897256369904096e-05,-0.0002112388447090233,7.986596119462364e-06,0.0,0.0,0.0,0.0,0.0,0.0,0.0,0.0,0.0,9.866103174196765e-11,3.077109808817531e-10,8.485060627912303e-12,0.0,0.0,0.0,0.0,0.0,0.0,0.0,0.0,0.0
109.214,104,109,214000000,base_footprint,-1.9786659817885758e-06,0.0015896501024245861,0.0001994305247613427,0.9999987166172278,0.0,0.0,0.0,0.0,0.0,0.0,0.0,0.0,0.0,-4.8972562071456955e-05,-0.0002112388451440012,7.98659801984865e-06,0.0,0.0,0.0,0.0,0.0,0.0,0.0,0.0,0.0,9.899825045631437e-11,3.087344882409536e-10,9.032511557931811e-12,0.0,0.0,0.0,0.0,0.0,0.0,0.0,0.0,0.0
109.215,105,109,215000000,base_footprint,-1.9786688927449697e-06,0.001589650102421719,0.0001994323565894196,0.9999987166168625,0.0,0.0,0.0,0.0,0.0,0.0,0.0,0.0,0.0,-4.8972560489736706e-05,-0.00021123884558433244,7.98659993570791e-06,0.0,0.0,0.0,0.0,0.0,0.0,0.0,0.0,0.0,9.981689192709252e-11,3.111718819349831e-10,5.250891875887491e-12,0.0,0.0,0.0,0.0,0.0,0.0,0.0,0.0,0.0
109.216,106,109,216000000,base_footprint,-1.9786718036944384e-06,0.0015896501024188622,0.00019943418841760806,0.9999987166164971,0.0,0.0,0.0,0.0,0.0,0.0,0.0,0.0,0.0,-4.897255887373379e-05,-0.0002112388459942554,7.986601825358704e-06,0.0,0.0,0.0,0.0,0.0,0.0,0.0,0.0,0.0,9.838751724035792e-11,3.0697697644046005e-10,7.1709591005587725e-12,0.0,0.0,0.0,0.0,0.0,0.0,0.0,0.0,0.0
109.217,107,109,217000000,base_footprint,-1.9786747146383335e-06,0.0015896501024160099,0.00019943602024592166,0.9999987166161317,0.0,0.0,0.0,0.0,0.0,0.0,0.0,0.0,0.0,-4.897255726052262e-05,-0.00021123884641540823,7.986603742175954e-06,0.0,0.0,0.0,0.0,0.0,0.0,0.0,0.0,0.0,9.98583385161158e-11,3.1137523366530746e-10,6.511916280512509e-12,0.0,0.0,0.0,0.0,0.0,0.0,0.0,0.0,0.0
109.218,108,109,218000000,base_footprint,-1.9786776255917866e-06,0.001589650102413158,0.00019943785207434758,0.9999987166157663,0.0,0.0,0.0,0.0,0.0,0.0,0.0,0.0,0.0,-4.897255567766283e-05,-0.0002112388468452508,7.98660563362039e-06,0.0,0.0,0.0,0.0,0.0,0.0,0.0,0.0,0.0,9.849780251971982e-11,3.0721709833379743e-10,6.93915613103156e-12,0.0,0.0,0.0,0.0,0.0,0.0,0.0,0.0,0.0
109.219,109,109,219000000,base_footprint,-1.9786805365441326e-06,0.0015896501024103091,0.00019943968390289074,0.9999987166154012,0.0,0.0,0.0,0.0,0.0,0.0,0.0,0.0,0.0,-4.897255407336628e-05,-0.00021123884727060967,7.986607534624828e-06,0.0,0.0,0.0,0.0,0.0,0.0,0.0,0.0,0.0,9.901728088962285e-11,3.087992078349116e-10,8.852465492723685e-12,0.0,0.0,0.0,0.0,0.0,0.0,0.0,0.0,0.0
109.22,110,109,220000000,base_footprint,-1.9786834474948726e-06,0.0015896501024074512,0.00019944151573155728,0.9999987166150358,0.0,0.0,0.0,0.0,0.0,0.0,0.0,0.0,0.0,-4.897255246809703e-05,-0.00021123884771803242,7.986609448128692e-06,0.0,0.0,0.0,0.0,0.0,0.0,0.0,0.0,0.0,9.971252892226527e-11,3.108260919304825e-10,8.815727311501742e-12,0.0,0.0,0.0,0.0,0.0,0.0,0.0,0.0,0.0
109.221,111,109,221000000,base_footprint,-1.9786863584321122e-06,0.0015896501024045965,0.00019944334756034522,0.9999987166146704,0.0,0.0,0.0,0.0,0.0,0.0,0.0,0.0,0.0,-4.8972550838878266e-05,-0.00021123884814216247,7.9866113573514e-06,0.0,0.0,0.0,0.0,0.0,0.0,0.0,0.0,0.0,9.945623747708305e-11,3.101686922893722e-10,6.730123056227662e-12,0.0,0.0,0.0,0.0,0.0,0.0,0.0,0.0,0.0
109.222,112,109,222000000,base_footprint,-1.9786892693809037e-06,0.0015896501024017418,0.00019944517938924827,0.9999987166143051,0.0,0.0,0.0,0.0,0.0,0.0,0.0,0.0,0.0,-4.897254926004035e-05,-0.0002112388485725241,7.986613254424292e-06,0.0,0.0,0.0,0.0,0.0,0.0,0.0,0.0,0.0,9.880257005068584e-11,3.081231554137007e-10,7.595389026681611e-12,0.0,0.0,0.0,0.0,0.0,0.0,0.0,0.0,0.0
109.223,113,109,223000000,base_footprint,-1.978692180339467e-06,0.0015896501023988916,0.00019944701121827425,0.9999987166139397,0.0,0.0,0.0,0.0,0.0,0.0,0.0,0.0,0.0,-4.897254767748817e-05,-0.00021123884899382802,7.986615167105164e-06,0.0,0.0,0.0,0.0,0.0,0.0,0.0,0.0,0.0,9.962976792279873e-11,3.106582642430926e-10,6.262892238879444e-12,0.0,0.0,0.0,0.0,0.0,0.0,0.0,0.0,0.0
109.224,114,109,224000000,base_footprint,-1.9786950912862716e-06,0.0015896501023960426,0.0001994488430474182,0.9999987166135743,0.0,0.0,0.0,0.0,0.0,0.0,0.0,0.0,0.0,-4.8972546051863765e-05,-0.00021123884942210634,7.986617069450351e-06,0.0,0.0,0.0,0.0,0.0,0.0,0.0,0.0,0.0,9.909540439702635e-11,3.0904862147070675e-10,8.519736897677026e-12,0.0,0.0,0.0,0.0,0.0,0.0,0.0,0.0,0.0
109.225,115,109,225000000,base_footprint,-1.978698002233021e-06,0.0015896501023931866,0.00019945067487667654,0.9999987166132089,0.0,0.0,0.0,0.0,0.0,0.0,0.0,0.0,0.0,-4.8972544449767854e-05,-0.00021123884986644595,7.986618964976618e-06,0.0,0.0,0.0,0.0,0.0,0.0,0.0,0.0,0.0,9.874618251139477e-11,3.0790809151886056e-10,1.0439811868382003e-11,0.0,0.0,0.0,0.0,0.0,0.0,0.0,0.0,0.0
109.225,116,109,226000000,base_footprint,-1.9787009131932442e-06,0.0015896501023903288,0.00019945250670605605,0.9999987166128436,0.0,0.0,0.0,0.0,0.0,0.0,0.0,0.0,0.0,-4.897254287465181e-05,-0.00021123885030035507,7.986620874230708e-06,0.0,0.0,0.0,0.0,0.0,0.0,0.0,0.0,0.0,9.946546765918406e-11,3.1009153779304505e-10,8.974295465781245e-12,0.0,0.0,0.0,0.0,0.0,0.0,0.0,0.0,0.0
109.227,117,109,227000000,base_footprint,-1.9787038241411374e-06,0.0015896501023874648,0.00019945433853554837,0.9999987166124782,0.0,0.0,0.0,0.0,0.0,0.0,0.0,0.0,0.0,-4.897254124788691e-05,-0.00021123885074322317,7.986622766359985e-06,0.0,0.0,0.0,0.0,0.0,0.0,0.0,0.0,0.0,9.85656163146622e-11,3.073950294709013e-10,1.0244045063491444e-11,0.0,0.0,0.0,0.0,0.0,0.0,0.0,0.0,0.0
109.227,118,109,228000000,base_footprint,-1.97870673509987e-06,0.0015896501023846023,0.00019945617036516206,0.9999987166121128,0.0,0.0,0.0,0.0,0.0,0.0,0.0,0.0,0.0,-4.8972539667555074e-05,-0.0002112388511705551,7.98662467589071e-06,0.0,0.0,0.0,0.0,0.0,0.0,0.0,0.0,0.0,9.946583797424001e-11,3.101443327280701e-10,6.224621459944311e-12,0.0,0.0,0.0,0.0,0.0,0.0,0.0,0.0,0.0
109.228,119,109,229000000,base_footprint,-1.978709646051936e-06,0.0015896501023817382,0.00019945800219489416,0.9999987166117476,0.0,0.0,0.0,0.0,0.0,0.0,0.0,0.0,0.0,-4.897253805206711e-05,-0.00021123885160436064,7.986626579159564e-06,0.0,0.0,0.0,0.0,0.0,0.0,0.0,0.0,0.0,9.9141304916385e-11,3.0918299188626937e-10,6.177613710379105e-12,0.0,0.0,0.0,0.0,0.0,0.0,0.0,0.0,0.0
109.23,120,109,230000000,base_footprint,-1.978712556996257e-06,0.0015896501023788805,0.0001994598340247544,0.9999987166113821,0.0,0.0,0.0,0.0,0.0,0.0,0.0,0.0,0.0,-4.897253643435441e-05,-0.00021123885202137675,7.98662850206729e-06,0.0,0.0,0.0,0.0,0.0,0.0,0.0,0.0,0.0,1.0018475653459714e-10,3.1236896808633677e-10,7.1065443463783236e-12,0.0,0.0,0.0,0.0,0.0,0.0,0.0,0.0,0.0
109.23,121,109,231000000,base_footprint,-1.978715467942739e-06,0.0015896501023760208,0.00019946166585473548,0.9999987166110168,0.0,0.0,0.0,0.0,0.0,0.0,0.0,0.0,0.0,-4.897253483668037e-05,-0.00021123885245663774,7.986630410338489e-06,0.0,0.0,0.0,0.0,0.0,0.0,0.0,0.0,0.0,9.941855221536979e-11,3.0996621470889644e-10,9.054751087631826e-12,0.0,0.0,0.0,0.0,0.0,0.0,0.0,0.0,0.0
109.232,122,109,232000000,base_footprint,-1.978718378895843e-06,0.001589650102373171,0.00019946349768482736,0.9999987166106513,0.0,0.0,0.0,0.0,0.0,0.0,0.0,0.0,0.0,-4.897253324795843e-05,-0.00021123885286593286,7.98663229882561e-06,0.0,0.0,0.0,0.0,0.0,0.0,0.0,0.0,0.0,9.831636006328018e-11,3.067470690047976e-10,6.2612176236804956e-12,0.0,0.0,0.0,0.0,0.0,0.0,0.0,0.0,0.0
109.233,123,109,233000000,base_footprint,-1.97872128984218e-06,0.0015896501023703231,0.00019946532951504471,0.9999987166102859,0.0,0.0,0.0,0.0,0.0,0.0,0.0,0.0,0.0,-4.897253163219275e-05,-0.00021123885329347577,7.986634216159625e-06,0.0,0.0,0.0,0.0,0.0,0.0,0.0,0.0,0.0,9.989214148989342e-11,3.1146287964554896e-10,6.260048556796823e-12,0.0,0.0,0.0,0.0,0.0,0.0,0.0,0.0,0.0
109.234,124,109,234000000,base_footprint,-1.9787242007896917e-06,0.0015896501023674751,0.0001994671613453706,0.9999987166099206,0.0,0.0,0.0,0.0,0.0,0.0,0.0,0.0,0.0,-4.8972530032676906e-05,-0.00021123885372420929,7.986636099922826e-06,0.0,0.0,0.0,0.0,0.0,0.0,0.0,0.0,0.0,9.809573304396937e-11,3.0599772823274496e-10,9.368001238743622e-12,0.0,0.0,0.0,0.0,0.0,0.0,0.0,0.0,0.0
109.235,125,109,235000000,base_footprint,-1.9787271117456516e-06,0.0015896501023646163,0.00019946899317582132,0.9999987166095552,0.0,0.0,0.0,0.0,0.0,0.0,0.0,0.0,0.0,-4.8972528447471564e-05,-0.00021123885417597034,7.986638016392139e-06,0.0,0.0,0.0,0.0,0.0,0.0,0.0,0.0,0.0,9.986667735046958e-11,3.1127623214017866e-10,6.875533404592867e-12,0.0,0.0,0.0,0.0,0.0,0.0,0.0,0.0,0.0
109.236,126,109,236000000,base_footprint,-1.9787300227007064e-06,0.0015896501023617581,0.00019947082500638806,0.9999987166091898,0.0,0.0,0.0,0.0,0.0,0.0,0.0,0.0,0.0,-4.8972526843569765e-05,-0.00021123885460542846,7.986639915101024e-06,0.0,0.0,0.0,0.0,0.0,0.0,0.0,0.0,0.0,9.88981713986501e-11,3.084264173134408e-10,8.912192645725606e-12,0.0,0.0,0.0,0.0,0.0,0.0,0.0,0.0,0.0
109.237,127,109,237000000,base_footprint,-1.9787329336619555e-06,0.0015896501023589002,0.00019947265683706902,0.9999987166088244,0.0,0.0,0.0,0.0,0.0,0.0,0.0,0.0,0.0,-4.8972525253933485e-05,-0.000211238855035101,7.986641810247471e-06,0.0,0.0,0.0,0.0,0.0,0.0,0.0,0.0,0.0,9.869908629261391e-11,3.0782755959509876e-10,7.379677409979421e-12,0.0,0.0,0.0,0.0,0.0,0.0,0.0,0.0,0.0
109.239,128,109,238000000,base_footprint,-1.9787358446153154e-06,0.0015896501023560474,0.00019947448866787488,0.9999987166084591,0.0,0.0,0.0,0.0,0.0,0.0,0.0,0.0,0.0,-4.8972523635940914e-05,-0.00021123885545511296,7.98664372660473e-06,0.0,0.0,0.0,0.0,0.0,0.0,0.0,0.0,0.0,9.983535582544474e-11,3.113078116768783e-10,7.1274807145756335e-12,0.0,0.0,0.0,0.0,0.0,0.0,0.0,0.0,0.0
109.239,129,109,239000000,base_footprint,-1.9787387555662554e-06,0.0015896501023531947,0.00019947632049879542,0.9999987166080936,0.0,0.0,0.0,0.0,0.0,0.0,0.0,0.0,0.0,-4.897252202913583e-05,-0.00021123885588510157,7.986645622657608e-06,0.0,0.0,0.0,0.0,0.0,0.0,0.0,0.0,0.0,9.875343221901686e-11,3.0800036866297547e-10,8.010316167448367e-12,0.0,0.0,0.0,0.0,0.0,0.0,0.0,0.0,0.0
109.24,130,109,240000000,base_footprint,-1.9787416665274567e-06,0.0015896501023503358,0.0001994781523298361,0.9999987166077283,0.0,0.0,0.0,0.0,0.0,0.0,0.0,0.0,0.0,-4.897252044763313e-05,-0.00021123885632888455,7.986647529697252e-06,0.0,0.0,0.0,0.0,0.0,0.0,0.0,0.0,0.0,9.935294317267664e-11,3.097424955081002e-10,7.661794498873234e-12,0.0,0.0,0.0,0.0,0.0,0.0,0.0,0.0,0.0
109.241,131,109,241000000,base_footprint,-1.9787445774762612e-06,0.0015896501023474664,0.00019947998416099997,0.9999987166073628,0.0,0.0,0.0,0.0,0.0,0.0,0.0,0.0,0.0,-4.897251882058044e-05,-0.00021123885677970479,7.986649442709708e-06,0.0,0.0,0.0,0.0,0.0,0.0,0.0,0.0,0.0,9.970364895852498e-11,3.1077948994634833e-10,1.2054405911695407e-11,0.0,0.0,0.0,0.0,0.0,0.0,0.0,0.0,0.0
109.242,132,109,242000000,base_footprint,-1.978747488430734e-06,0.0015896501023446006,0.00019948181599228898,0.9999987166069974,0.0,0.0,0.0,0.0,0.0,0.0,0.0,0.0,0.0,-4.8972517229788985e-05,-0.00021123885720240513,7.986651359676836e-06,0.0,0.0,0.0,0.0,0.0,0.0,0.0,0.0,0.0,9.986506350830649e-11,3.1136517524849234e-10,6.738602675278808e-12,0.0,0.0,0.0,0.0,0.0,0.0,0.0,0.0,0.0
109.243,133,109,243000000,base_footprint,-1.9787503993859258e-06,0.0015896501023417396,0.0001994836478236991,0.999998716606632,0.0,0.0,0.0,0.0,0.0,0.0,0.0,0.0,0.0,-4.897251562915611e-05,-0.00021123885762363597,7.986653268508196e-06,0.0,0.0,0.0,0.0,0.0,0.0,0.0,0.0,0.0,9.943001380921031e-11,3.1006175307752294e-10,7.582366950465944e-12,0.0,0.0,0.0,0.0,0.0,0.0,0.0,0.0,0.0
109.243,134,109,244000000,base_footprint,-1.978753310338815e-06,0.0015896501023388804,0.00019948547965522573,0.9999987166062666,0.0,0.0,0.0,0.0,0.0,0.0,0.0,0.0,0.0,-4.897251402248294e-05,-0.0002112388580507157,7.986655168175074e-06,0.0,0.0,0.0,0.0,0.0,0.0,0.0,0.0,0.0,9.894765449783022e-11,3.08585917338454e-10,8.8851055548792e-12,0.0,0.0,0.0,0.0,0.0,0.0,0.0,0.0,0.0
109.246,135,109,245000000,base_footprint,-1.978756221288829e-06,0.0015896501023360261,0.00019948731148687103,0.9999987166059012,0.0,0.0,0.0,0.0,0.0,0.0,0.0,0.0,0.0,-4.897251241465541e-05,-0.00021123885847093303,7.986657072065046e-06,0.0,0.0,0.0,0.0,0.0,0.0,0.0,0.0,0.0,9.91532940923324e-11,3.092721048982705e-10,4.215050855312132e-12,0.0,0.0,0.0,0.0,0.0,0.0,0.0,0.0,0.0
109.246,136,109,246000000,base_footprint,-1.97875913224564e-06,0.0015896501023331797,0.00019948914331862667,0.9999987166055356,0.0,0.0,0.0,0.0,0.0,0.0,0.0,0.0,0.0,-4.897251082633013e-05,-0.0002112388588848145,7.986658959559729e-06,0.0,0.0,0.0,0.0,0.0,0.0,0.0,0.0,0.0,9.826209854749757e-11,3.065855632733807e-10,4.552293321009048e-12,0.0,0.0,0.0,0.0,0.0,0.0,0.0,0.0,0.0
109.247,137,109,247000000,base_footprint,-1.978762043198306e-06,0.0015896501023303343,0.00019949097515050744,0.9999987166051701,0.0,0.0,0.0,0.0,0.0,0.0,0.0,0.0,0.0,-4.897250921587376e-05,-0.0002112388593141274,7.986660876232607e-06,0.0,0.0,0.0,0.0,0.0,0.0,0.0,0.0,0.0,9.986005295131595e-11,3.113476636645307e-10,7.100561063428626e-12,0.0,0.0,0.0,0.0,0.0,0.0,0.0,0.0,0.0
109.248,138,109,248000000,base_footprint,-1.9787649541450905e-06,0.001589650102327482,0.00019949280698250738,0.9999987166048049,0.0,0.0,0.0,0.0,0.0,0.0,0.0,0.0,0.0,-4.897250760207804e-05,-0.0002112388597596156,7.9866627811437e-06,0.0,0.0,0.0,0.0,0.0,0.0,0.0,0.0,0.0,9.925807653131633e-11,3.0944652867147437e-10,1.150029417224203e-11,0.0,0.0,0.0,0.0,0.0,0.0,0.0,0.0,0.0
109.249,139,109,249000000,base_footprint,-1.9787678651005286e-06,0.0015896501023246205,0.00019949463881462374,0.9999987166044394,0.0,0.0,0.0,0.0,0.0,0.0,0.0,0.0,0.0,-4.897250601736663e-05,-0.0002112388602073769,7.986664680898588e-06,0.0,0.0,0.0,0.0,0.0,0.0,0.0,0.0,0.0,9.896659413675133e-11,3.0856680631998684e-10,8.02470630898778e-12,0.0,0.0,0.0,0.0,0.0,0.0,0.0,0.0,0.0
109.249,140,109,250000000,base_footprint,-1.9787707760652905e-06,0.0015896501023217587,0.00019949647064686273,0.9999987166040739,0.0,0.0,0.0,0.0,0.0,0.0,0.0,0.0,0.0,-4.897250443390081e-05,-0.00021123886063852156,7.9866665929446e-06,0.0,0.0,0.0,0.0,0.0,0.0,0.0,0.0,0.0,9.960975674346007e-11,3.105567126411212e-10,7.554112016946223e-12,0.0,0.0,0.0,0.0,0.0,0.0,0.0,0.0,0.0
109.251,141,109,251000000,base_footprint,-1.9787736870240993e-06,0.0015896501023189137,0.00019949830247922257,0.9999987166037084,0.0,0.0,0.0,0.0,0.0,0.0,0.0,0.0,0.0,-4.8972502819831316e-05,-0.000211238861035025,7.986668501194675e-06,0.0,0.0,0.0,0.0,0.0,0.0,0.0,0.0,0.0,9.937946808214723e-11,3.099880756920757e-10,8.65883444918151e-12,0.0,0.0,0.0,0.0,0.0,0.0,0.0,0.0,0.0
109.251,142,109,252000000,base_footprint,-1.978776597976052e-06,0.0015896501023160666,0.00019950013431169726,0.9999987166033429,0.0,0.0,0.0,0.0,0.0,0.0,0.0,0.0,0.0,-4.8972501204095985e-05,-0.0002112388614696514,7.98667039740509e-06,0.0,0.0,0.0,0.0,0.0,0.0,0.0,0.0,0.0,9.876433254135634e-11,3.080395678551938e-10,6.8721749604748125e-12,0.0,0.0,0.0,0.0,0.0,0.0,0.0,0.0,0.0
109.253,143,109,253000000,base_footprint,-1.978779508934876e-06,0.0015896501023132219,0.00019950196614428595,0.9999987166029777,0.0,0.0,0.0,0.0,0.0,0.0,0.0,0.0,0.0,-4.897249961589739e-05,-0.00021123886189642073,7.986672292106586e-06,0.0,0.0,0.0,0.0,0.0,0.0,0.0,0.0,0.0,9.867407051066032e-11,3.077532696791622e-10,8.056397669671517e-12,0.0,0.0,0.0,0.0,0.0,0.0,0.0,0.0,0.0
109.253,144,109,254000000,base_footprint,-1.978782419901774e-06,0.001589650102310361,0.00019950379797699063,0.9999987166026122,0.0,0.0,0.0,0.0,0.0,0.0,0.0,0.0,0.0,-4.8972498029942046e-05,-0.0002112388623578923,7.98667419098455e-06,0.0,0.0,0.0,0.0,0.0,0.0,0.0,0.0,0.0,9.893417893263536e-11,3.084266227022447e-10,8.28998685543872e-12,0.0,0.0,0.0,0.0,0.0,0.0,0.0,0.0,0.0
109.255,145,109,255000000,base_footprint,-1.9787853308536914e-06,0.0015896501023074927,0.0001995056298098177,0.9999987166022467,0.0,0.0,0.0,0.0,0.0,0.0,0.0,0.0,0.0,-4.897249639780391e-05,-0.00021123886280347633,7.986676102265383e-06,0.0,0.0,0.0,0.0,0.0,0.0,0.0,0.0,0.0,9.960048539902239e-11,3.1050671657920907e-10,1.0365004253403574e-11,0.0,0.0,0.0,0.0,0.0,0.0,0.0,0.0,0.0
109.255,146,109,256000000,base_footprint,-1.9787882417996436e-06,0.0015896501023046328,0.00019950746164276327,0.9999987166018812,0.0,0.0,0.0,0.0,0.0,0.0,0.0,0.0,0.0,-4.897249478379185e-05,-0.00021123886321693826,7.986678005723397e-06,0.0,0.0,0.0,0.0,0.0,0.0,0.0,0.0,0.0,9.913067973819057e-11,3.0921131131597865e-10,6.137253752574695e-12,0.0,0.0,0.0,0.0,0.0,0.0,0.0,0.0,0.0
109.256,147,109,257000000,base_footprint,-1.9787911527503705e-06,0.0015896501023017812,0.00019950929347582787,0.9999987166015157,0.0,0.0,0.0,0.0,0.0,0.0,0.0,0.0,0.0,-4.8972493191278715e-05,-0.0002112388636309477,7.986679910605965e-06,0.0,0.0,0.0,0.0,0.0,0.0,0.0,0.0,0.0,9.921200004516276e-11,3.0940968537479214e-10,8.684739975538299e-12,0.0,0.0,0.0,0.0,0.0,0.0,0.0,0.0,0.0
109.257,148,109,258000000,base_footprint,-1.9787940637123816e-06,0.0015896501022989252,0.00019951112530901266,0.9999987166011503,0.0,0.0,0.0,0.0,0.0,0.0,0.0,0.0,0.0,-4.8972491611874905e-05,-0.0002112388640702946,7.986681817798172e-06,0.0,0.0,0.0,0.0,0.0,0.0,0.0,0.0,0.0,9.935831288600823e-11,3.0976384432259935e-10,8.223830510776898e-12,0.0,0.0,0.0,0.0,0.0,0.0,0.0,0.0,0.0
109.259,149,109,259000000,base_footprint,-1.9787969746822446e-06,0.0015896501022960655,0.00019951295714231758,0.9999987166007848,0.0,0.0,0.0,0.0,0.0,0.0,0.0,0.0,0.0,-4.8972490025448514e-05,-0.00021123886450799206,7.986683724811693e-06,0.0,0.0,0.0,0.0,0.0,0.0,0.0,0.0,0.0,9.934408470847281e-11,3.097456814260457e-10,6.966242383969437e-12,0.0,0.0,0.0,0.0,0.0,0.0,0.0,0.0,0.0
109.259,150,109,260000000,base_footprint,-1.978799885639747e-06,0.0015896501022932097,0.00019951478897575073,0.9999987166004193,0.0,0.0,0.0,0.0,0.0,0.0,0.0,0.0,0.0,-4.897248839840849e-05,-0.0002112388649302538,7.9866856477329e-06,0.0,0.0,0.0,0.0,0.0,0.0,0.0,0.0,0.0,1.0019080724822173e-10,3.1238520302620425e-10,6.588104260512968e-12,0.0,0.0,0.0,0.0,0.0,0.0,0.0,0.0,0.0
109.261,151,109,261000000,base_footprint,-1.9788027965961727e-06,0.0015896501022903543,0.00019951662080930436,0.9999987166000538,0.0,0.0,0.0,0.0,0.0,0.0,0.0,0.0,0.0,-4.897248679425563e-05,-0.00021123886535996358,7.986687555349194e-06,0.0,0.0,0.0,0.0,0.0,0.0,0.0,0.0,0.0,9.937691950652625e-11,3.098701418127626e-10,8.570392041970158e-12,0.0,0.0,0.0,0.0,0.0,0.0,0.0,0.0,0.0
109.262,152,109,262000000,base_footprint,-1.978805707547966e-06,0.0015896501022874987,0.00019951845264296945,0.9999987165996883,0.0,0.0,0.0,0.0,0.0,0.0,0.0,0.0,0.0,-4.897248518297548e-05,-0.0002112388657909324,7.98668944486983e-06,0.0,0.0,0.0,0.0,0.0,0.0,0.0,0.0,0.0,9.84028605598749e-11,3.0694881039084236e-10,7.891603439426365e-12,0.0,0.0,0.0,0.0,0.0,0.0,0.0,0.0,0.0
109.263,153,109,263000000,base_footprint,-1.9788086185070387e-06,0.0015896501022846488,0.00019952028447675637,0.9999987165993228,0.0,0.0,0.0,0.0,0.0,0.0,0.0,0.0,0.0,-4.897248359549132e-05,-0.0002112388662099369,7.98669135527209e-06,0.0,0.0,0.0,0.0,0.0,0.0,0.0,0.0,0.0,9.950642583342091e-11,3.1029660627883237e-10,6.5868541190161786e-12,0.0,0.0,0.0,0.0,0.0,0.0,0.0,0.0,0.0
109.265,154,109,264000000,base_footprint,-1.978811529473813e-06,0.0015896501022817928,0.00019952211631065473,0.9999987165989573,0.0,0.0,0.0,0.0,0.0,0.0,0.0,0.0,0.0,-4.8972482008877064e-05,-0.00021123886665237352,7.98669324486339e-06,0.0,0.0,0.0,0.0,0.0,0.0,0.0,0.0,0.0,9.84070705046555e-11,3.0692263471137416e-10,5.692966128038827e-12,0.0,0.0,0.0,0.0,0.0,0.0,0.0,0.0,0.0
109.265,155,109,265000000,base_footprint,-1.9788144404185523e-06,0.001589650102278941,0.00019952394814467465,0.9999987165985919,0.0,0.0,0.0,0.0,0.0,0.0,0.0,0.0,0.0,-4.8972480362539586e-05,-0.00021123886707474242,7.98669515438243e-06,0.0,0.0,0.0,0.0,0.0,0.0,0.0,0.0,0.0,9.948452874431179e-11,3.102430649433305e-10,1.0411886598379626e-11,0.0,0.0,0.0,0.0,0.0,0.0,0.0,0.0,0.0
109.266,156,109,266000000,base_footprint,-1.978817351371416e-06,0.001589650102276084,0.00019952577997881866,0.9999987165982264,0.0,0.0,0.0,0.0,0.0,0.0,0.0,0.0,0.0,-4.897247877687852e-05,-0.00021123886751510629,7.986697069401591e-06,0.0,0.0,0.0,0.0,0.0,0.0,0.0,0.0,0.0,9.97841784303471e-11,3.110415977769583e-10,8.944871437437298e-12,0.0,0.0,0.0,0.0,0.0,0.0,0.0,0.0,0.0
109.267,157,109,267000000,base_footprint,-1.9788202623385574e-06,0.0015896501022732224,0.00019952761181308922,0.9999987165978609,0.0,0.0,0.0,0.0,0.0,0.0,0.0,0.0,0.0,-4.897247720325226e-05,-0.0002112388679553118,7.986698989354597e-06,0.0,0.0,0.0,0.0,0.0,0.0,0.0,0.0,0.0,1.0004691538567109e-10,3.1182296219745086e-10,8.81589950773123e-12,0.0,0.0,0.0,0.0,0.0,0.0,0.0,0.0,0.0
109.268,158,109,268000000,base_footprint,-1.9788231733032332e-06,0.0015896501022703573,0.00019952944364747614,0.9999987165974954,0.0,0.0,0.0,0.0,0.0,0.0,0.0,0.0,0.0,-4.897247559614595e-05,-0.00021123886839257417,7.986700888725914e-06,0.0,0.0,0.0,0.0,0.0,0.0,0.0,0.0,0.0,9.893914210237901e-11,3.085385481187463e-10,7.936139344500745e-12,0.0,0.0,0.0,0.0,0.0,0.0,0.0,0.0,0.0
109.269,159,109,269000000,base_footprint,-1.978826084266342e-06,0.0015896501022674987,0.00019953127548197303,0.9999987165971299,0.0,0.0,0.0,0.0,0.0,0.0,0.0,0.0,0.0,-4.897247399105053e-05,-0.00021123886880986713,7.986702775297003e-06,0.0,0.0,0.0,0.0,0.0,0.0,0.0,0.0,0.0,9.823404324440949e-11,3.0646145292431176e-10,9.410046640656616e-12,0.0,0.0,0.0,0.0,0.0,0.0,0.0,0.0,0.0
109.271,160,109,270000000,base_footprint,-1.9788289952199247e-06,0.0015896501022646362,0.0001995331073166002,0.9999987165967644,0.0,0.0,0.0,0.0,0.0,0.0,0.0,0.0,0.0,-4.8972472369802695e-05,-0.00021123886924824474,7.986704702338719e-06,0.0,0.0,0.0,0.0,0.0,0.0,0.0,0.0,0.0,1.0042750057665112e-10,3.1304439946505123e-10,6.6186890528265785e-12,0.0,0.0,0.0,0.0,0.0,0.0,0.0,0.0,0.0
109.271,161,109,271000000,base_footprint,-1.9788319061737476e-06,0.0015896501022617832,0.00019953493915133623,0.9999987165963989,0.0,0.0,0.0,0.0,0.0,0.0,0.0,0.0,0.0,-4.8972470768314215e-05,-0.00021123886965945365,7.986706586694617e-06,0.0,0.0,0.0,0.0,0.0,0.0,0.0,0.0,0.0,9.809732863935336e-11,3.0609671182596965e-10,5.921130046070728e-12,0.0,0.0,0.0,0.0,0.0,0.0,0.0,0.0,0.0
109.272,162,109,272000000,base_footprint,-1.978834817138229e-06,0.0015896501022589326,0.00019953677098619768,0.9999987165960332,0.0,0.0,0.0,0.0,0.0,0.0,0.0,0.0,0.0,-4.897246918757792e-05,-0.00021123887008419652,7.98670850445804e-06,0.0,0.0,0.0,0.0,0.0,0.0,0.0,0.0,0.0,9.990791635025843e-11,3.114792012308377e-10,6.788041195285603e-12,0.0,0.0,0.0,0.0,0.0,0.0,0.0,0.0,0.0
109.273,163,109,273000000,base_footprint,-1.978837728096639e-06,0.001589650102256077,0.00019953860282117885,0.9999987165956677,0.0,0.0,0.0,0.0,0.0,0.0,0.0,0.0,0.0,-4.8972467573279565e-05,-0.0002112388705255176,7.98671041032507e-06,0.0,0.0,0.0,0.0,0.0,0.0,0.0,0.0,0.0,9.92912776388703e-11,3.096020636932914e-10,7.0232098115884266e-12,0.0,0.0,0.0,0.0,0.0,0.0,0.0,0.0,0.0
109.274,164,109,274000000,base_footprint,-1.9788406390529956e-06,0.0015896501022532256,0.0001995404346562714,0.9999987165953023,0.0,0.0,0.0,0.0,0.0,0.0,0.0,0.0,0.0,-4.897246596717425e-05,-0.00021123887094748868,7.986712299723668e-06,0.0,0.0,0.0,0.0,0.0,0.0,0.0,0.0,0.0,9.838863869809546e-11,3.0692118425731425e-10,8.63273177450273e-12,0.0,0.0,0.0,0.0,0.0,0.0,0.0,0.0,0.0
109.275,165,109,275000000,base_footprint,-1.978843550013036e-06,0.0015896501022503687,0.0001995422664914815,0.9999987165949368,0.0,0.0,0.0,0.0,0.0,0.0,0.0,0.0,0.0,-4.897246437249927e-05,-0.00021123887138889926,7.986714201609343e-06,0.0,0.0,0.0,0.0,0.0,0.0,0.0,0.0,0.0,9.908247837160163e-11,3.089274128930639e-10,9.955689428436235e-12,0.0,0.0,0.0,0.0,0.0,0.0,0.0,0.0,0.0
109.276,166,109,276000000,base_footprint,-1.9788464609698125e-06,0.0015896501022475105,0.00019954409832681605,0.9999987165945712,0.0,0.0,0.0,0.0,0.0,0.0,0.0,0.0,0.0,-4.8972462763769726e-05,-0.000211238871821422,7.986716117124341e-06,0.0,0.0,0.0,0.0,0.0,0.0,0.0,0.0,0.0,9.980470456732919e-11,3.111573266163595e-10,8.368691546121395e-12,0.0,0.0,0.0,0.0,0.0,0.0,0.0,0.0,0.0
109.277,167,109,277000000,base_footprint,-1.978849371941163e-06,0.0015896501022446602,0.00019954593016227167,0.9999987165942056,0.0,0.0,0.0,0.0,0.0,0.0,0.0,0.0,0.0,-4.897246119092456e-05,-0.00021123887223599403,7.986718026099194e-06,0.0,0.0,0.0,0.0,0.0,0.0,0.0,0.0,0.0,9.942001755601522e-11,3.100426866291477e-10,5.642066800797849e-12,0.0,0.0,0.0,0.0,0.0,0.0,0.0,0.0,0.0
109.278,168,109,278000000,base_footprint,-1.97885228289414e-06,0.0015896501022418048,0.0001995477619978438,0.9999987165938401,0.0,0.0,0.0,0.0,0.0,0.0,0.0,0.0,0.0,-4.897245955194553e-05,-0.00021123887267699034,7.986719925415141e-06,0.0,0.0,0.0,0.0,0.0,0.0,0.0,0.0,0.0,9.893927072398006e-11,3.085780961956589e-10,6.03197870024394e-12,0.0,0.0,0.0,0.0,0.0,0.0,0.0,0.0,0.0
109.279,169,109,279000000,base_footprint,-1.9788551938485112e-06,0.001589650102238954,0.00019954959383353804,0.9999987165934746,0.0,0.0,0.0,0.0,0.0,0.0,0.0,0.0,0.0,-4.897245795271525e-05,-0.00021123887309831284,7.986721836395432e-06,0.0,0.0,0.0,0.0,0.0,0.0,0.0,0.0,0.0,9.955223531324139e-11,3.1040810437346766e-10,9.82920707393767e-12,0.0,0.0,0.0,0.0,0.0,0.0,0.0,0.0,0.0
109.28,170,109,280000000,base_footprint,-1.9788581048105736e-06,0.0015896501022360976,0.0001995514256693443,0.999998716593109,0.0,0.0,0.0,0.0,0.0,0.0,0.0,0.0,0.0,-4.897245636614771e-05,-0.0002112388735400042,7.986723727176639e-06,0.0,0.0,0.0,0.0,0.0,0.0,0.0,0.0,0.0,9.847471503909741e-11,3.071153540369549e-10,7.060694917335746e-12,0.0,0.0,0.0,0.0,0.0,0.0,0.0,0.0,0.0
109.281,171,109,281000000,base_footprint,-1.9788610157724178e-06,0.0015896501022332513,0.00019955325750527315,0.9999987165927434,0.0,0.0,0.0,0.0,0.0,0.0,0.0,0.0,0.0,-4.897245476353954e-05,-0.0002112388739499009,7.986725639041953e-06,0.0,0.0,0.0,0.0,0.0,0.0,0.0,0.0,0.0,9.958665876720946e-11,3.1055666824946074e-10,9.109474441302004e-12,0.0,0.0,0.0,0.0,0.0,0.0,0.0,0.0,0.0
109.282,172,109,282000000,base_footprint,-1.9788639267417027e-06,0.0015896501022303923,0.00019955508934132502,0.999998716592378,0.0,0.0,0.0,0.0,0.0,0.0,0.0,0.0,0.0,-4.8972453176346565e-05,-0.00021123887440697406,7.986727551837494e-06,0.0,0.0,0.0,0.0,0.0,0.0,0.0,0.0,0.0,9.968612968148257e-11,3.1068367938595256e-10,1.0438680791486611e-11,0.0,0.0,0.0,0.0,0.0,0.0,0.0,0.0,0.0
109.283,173,109,283000000,base_footprint,-1.9788668377006166e-06,0.0015896501022275202,0.0001995569211774924,0.9999987165920124,0.0,0.0,0.0,0.0,0.0,0.0,0.0,0.0,0.0,-4.897245155346386e-05,-0.0002112388748627024,7.986729449448206e-06,0.0,0.0,0.0,0.0,0.0,0.0,0.0,0.0,0.0,9.886327814347969e-11,3.0827732541822006e-10,7.2385246538245435e-12,0.0,0.0,0.0,0.0,0.0,0.0,0.0,0.0,0.0
109.284,174,109,284000000,base_footprint,-1.97886974865758e-06,0.0015896501022246525,0.0001995587530137835,0.9999987165916469,0.0,0.0,0.0,0.0,0.0,0.0,0.0,0.0,0.0,-4.897244994750443e-05,-0.0002112388752844062,7.98673136356564e-06,0.0,0.0,0.0,0.0,0.0,0.0,0.0,0.0,0.0,9.972147905062225e-11,3.109265756010879e-10,9.406056006078525e-12,0.0,0.0,0.0,0.0,0.0,0.0,0.0,0.0,0.0
109.285,175,109,285000000,base_footprint,-1.9788726596294995e-06,0.001589650102221793,0.00019956058485018444,0.9999987165912813,0.0,0.0,0.0,0.0,0.0,0.0,0.0,0.0,0.0,-4.89724483754304e-05,-0.00021123887569797915,7.986733250060414e-06,0.0,0.0,0.0,0.0,0.0,0.0,0.0,0.0,0.0,9.820969941296556e-11,3.063987219889929e-10,5.9815140813992905e-12,0.0,0.0,0.0,0.0,0.0,0.0,0.0,0.0,0.0
109.285,176,109,286000000,base_footprint,-1.9788755705959155e-06,0.0015896501022189386,0.0001995624166867119,0.9999987165909157,0.0,0.0,0.0,0.0,0.0,0.0,0.0,0.0,0.0,-4.897244676218961e-05,-0.00021123887611844262,7.986735169653742e-06,0.0,0.0,0.0,0.0,0.0,0.0,0.0,0.0,0.0,1.0000588654514094e-10,3.1182510315041573e-10,6.189936636749018e-12,0.0,0.0,0.0,0.0,0.0,0.0,0.0,0.0,0.0
109.287,177,109,287000000,base_footprint,-1.9788784815516162e-06,0.0015896501022160915,0.00019956424852336145,0.9999987165905501,0.0,0.0,0.0,0.0,0.0,0.0,0.0,0.0,0.0,-4.897244513866808e-05,-0.0002112388765342095,7.98673708032166e-06,0.0,0.0,0.0,0.0,0.0,0.0,0.0,0.0,0.0,9.952458204186877e-11,3.103942729943545e-10,6.803237588411344e-12,0.0,0.0,0.0,0.0,0.0,0.0,0.0,0.0,0.0
109.287,178,109,288000000,base_footprint,-1.978881392510787e-06,0.001589650102213235,0.0001995660803601213,0.9999987165901845,0.0,0.0,0.0,0.0,0.0,0.0,0.0,0.0,0.0,-4.89724435436629e-05,-0.00021123887698360025,7.986738967621103e-06,0.0,0.0,0.0,0.0,0.0,0.0,0.0,0.0,0.0,9.8299614884216e-11,3.06563985567105e-10,8.054740695562716e-12,0.0,0.0,0.0,0.0,0.0,0.0,0.0,0.0,0.0
109.288,179,109,289000000,base_footprint,-1.978884303469922e-06,0.0015896501022103736,0.00019956791219699022,0.9999987165898191,0.0,0.0,0.0,0.0,0.0,0.0,0.0,0.0,0.0,-4.897244194153481e-05,-0.0002112388774246754,7.986740852430653e-06,0.0,0.0,0.0,0.0,0.0,0.0,0.0,0.0,0.0,9.816100508013196e-11,3.061715378910394e-10,8.945432857226244e-12,0.0,0.0,0.0,0.0,0.0,0.0,0.0,0.0,0.0
109.289,180,109,290000000,base_footprint,-1.978887214438159e-06,0.0015896501022075215,0.0001995697440339928,0.9999987165894535,0.0,0.0,0.0,0.0,0.0,0.0,0.0,0.0,0.0,-4.8972440357587646e-05,-0.0002112388778353445,7.986742786543847e-06,0.0,0.0,0.0,0.0,0.0,0.0,0.0,0.0,0.0,1.0076920228210551e-10,3.1413356154592986e-10,5.1687980217349025e-12,0.0,0.0,0.0,0.0,0.0,0.0,0.0,0.0,0.0
109.291,181,109,291000000,base_footprint,-1.9788901254042137e-06,0.0015896501022046696,0.00019957157587111035,0.9999987165890879,0.0,0.0,0.0,0.0,0.0,0.0,0.0,0.0,0.0,-4.897243875110065e-05,-0.00021123887826553635,7.986744683140457e-06,0.0,0.0,0.0,0.0,0.0,0.0,0.0,0.0,0.0,9.878923488526663e-11,3.080878056488794e-10,9.985451910076752e-12,0.0,0.0,0.0,0.0,0.0,0.0,0.0,0.0,0.0
109.292,182,109,292000000,base_footprint,-1.9788930363634067e-06,0.0015896501022018108,0.00019957340770834986,0.9999987165887223,0.0,0.0,0.0,0.0,0.0,0.0,0.0,0.0,0.0,-4.8972437135268865e-05,-0.0002112388787100165,7.986746593622335e-06,0.0,0.0,0.0,0.0,0.0,0.0,0.0,0.0,0.0,9.954645264052916e-11,3.103524323800425e-10,8.170408288660048e-12,0.0,0.0,0.0,0.0,0.0,0.0,0.0,0.0,0.0
109.293,183,109,293000000,base_footprint,-1.978895947320364e-06,0.0015896501021989524,0.00019957523954570577,0.9999987165883567,0.0,0.0,0.0,0.0,0.0,0.0,0.0,0.0,0.0,-4.8972435528789226e-05,-0.00021123887913920638,7.986748493081876e-06,0.0,0.0,0.0,0.0,0.0,0.0,0.0,0.0,0.0,9.893929666718025e-11,3.085520545971831e-10,9.172121872010432e-12,0.0,0.0,0.0,0.0,0.0,0.0,0.0,0.0,0.0
109.294,184,109,294000000,base_footprint,-1.9788988582934864e-06,0.0015896501021960994,0.0001995770713831772,0.9999987165879911,0.0,0.0,0.0,0.0,0.0,0.0,0.0,0.0,0.0,-4.897243395913139e-05,-0.00021123887955906597,7.986750391020545e-06,0.0,0.0,0.0,0.0,0.0,0.0,0.0,0.0,0.0,9.883162370676304e-11,3.0824958571761166e-10,6.014270337470845e-12,0.0,0.0,0.0,0.0,0.0,0.0,0.0,0.0,0.0
109.295,185,109,295000000,base_footprint,-1.978901769258387e-06,0.0015896501021932467,0.0001995789032207739,0.9999987165876255,0.0,0.0,0.0,0.0,0.0,0.0,0.0,0.0,0.0,-4.8972432340409124e-05,-0.0002112388799888734,7.986752308040568e-06,0.0,0.0,0.0,0.0,0.0,0.0,0.0,0.0,0.0,9.987837402829314e-11,3.114163300857577e-10,6.3621975724514516e-12,0.0,0.0,0.0,0.0,0.0,0.0,0.0,0.0,0.0
109.296,186,109,296000000,base_footprint,-1.9789046802192636e-06,0.0015896501021904009,0.00019958073505848975,0.9999987165872599,0.0,0.0,0.0,0.0,0.0,0.0,0.0,0.0,0.0,-4.897243073028174e-05,-0.00021123888040536822,7.986754212969025e-06,0.0,0.0,0.0,0.0,0.0,0.0,0.0,0.0,0.0,9.921796492826541e-11,3.0944373771292303e-10,8.00530876560758e-12,0.0,0.0,0.0,0.0,0.0,0.0,0.0,0.0,0.0
109.297,187,109,297000000,base_footprint,-1.9789075911821637e-06,0.0015896501021875431,0.00019958256689632298,0.9999987165868943,0.0,0.0,0.0,0.0,0.0,0.0,0.0,0.0,0.0,-4.89724291323174e-05,-0.0002112388808596185,7.98675611443453e-06,0.0,0.0,0.0,0.0,0.0,0.0,0.0,0.0,0.0,9.907269053657066e-11,3.0886420976184477e-10,9.722765191651253e-12,0.0,0.0,0.0,0.0,0.0,0.0,0.0,0.0,0.0
109.298,188,109,298000000,base_footprint,-1.9789105021519323e-06,0.0015896501021846776,0.00019958439873427126,0.9999987165865287,0.0,0.0,0.0,0.0,0.0,0.0,0.0,0.0,0.0,-4.8972427544053076e-05,-0.0002112388813059079,7.98675801141556e-06,0.0,0.0,0.0,0.0,0.0,0.0,0.0,0.0,0.0,9.882645373195457e-11,3.0812270628746813e-10,1.122639201205372e-11,0.0,0.0,0.0,0.0,0.0,0.0,0.0,0.0,0.0
109.299,189,109,299000000,base_footprint,-1.978913413123927e-06,0.001589650102181816,0.00019958623057233759,0.9999987165861631,0.0,0.0,0.0,0.0,0.0,0.0,0.0,0.0,0.0,-4.897242594638375e-05,-0.0002112388817283923,7.986759914181337e-06,0.0,0.0,0.0,0.0,0.0,0.0,0.0,0.0,0.0,9.910156524989332e-11,3.0907460935211865e-10,6.922380892668229e-12,0.0,0.0,0.0,0.0,0.0,0.0,0.0,0.0,0.0
109.3,190,109,300000000,base_footprint,-1.978916324089796e-06,0.0015896501021789627,0.00019958806241052705,0.9999987165857974,0.0,0.0,0.0,0.0,0.0,0.0,0.0,0.0,0.0,-4.897242433195967e-05,-0.00021123888214109998,7.986761827001502e-06,0.0,0.0,0.0,0.0,0.0,0.0,0.0,0.0,0.0,9.962583329384277e-11,3.1072915556581887e-10,3.66853075893229e-12,0.0,0.0,0.0,0.0,0.0,0.0,0.0,0.0,0.0
109.302,191,109,301000000,base_footprint,-1.978919235053137e-06,0.0015896501021761165,0.0001995898942488277,0.9999987165854319,0.0,0.0,0.0,0.0,0.0,0.0,0.0,0.0,0.0,-4.8972422724871e-05,-0.00021123888255888414,7.986763715830403e-06,0.0,0.0,0.0,0.0,0.0,0.0,0.0,0.0,0.0,9.834741989690266e-11,3.0683030402931397e-10,6.5921268423291615e-12,0.0,0.0,0.0,0.0,0.0,0.0,0.0,0.0,0.0
109.302,192,109,302000000,base_footprint,-1.978922146017339e-06,0.0015896501021732626,0.00019959172608725612,0.9999987165850663,0.0,0.0,0.0,0.0,0.0,0.0,0.0,0.0,0.0,-4.8972421124530706e-05,-0.00021123888300404267,7.986765638158394e-06,0.0,0.0,0.0,0.0,0.0,0.0,0.0,0.0,0.0,1.001853357479572e-10,3.1224863866993537e-10,9.234551035831354e-12,0.0,0.0,0.0,0.0,0.0,0.0,0.0,0.0,0.0
109.303,193,109,303000000,base_footprint,-1.978925056974505e-06,0.0015896501021704058,0.00019959355792579858,0.9999987165847006,0.0,0.0,0.0,0.0,0.0,0.0,0.0,0.0,0.0,-4.897241950833891e-05,-0.00021123888343997527,7.986767532869932e-06,0.0,0.0,0.0,0.0,0.0,0.0,0.0,0.0,0.0,9.869975919698402e-11,3.077971447467306e-10,1.144752063985004e-11,0.0,0.0,0.0,0.0,0.0,0.0,0.0,0.0,0.0
109.304,194,109,304000000,base_footprint,-1.9789279679408034e-06,0.0015896501021675474,0.00019959538976446626,0.9999987165843349,0.0,0.0,0.0,0.0,0.0,0.0,0.0,0.0,0.0,-4.897241792455056e-05,-0.0002112388838734165,7.986769450166898e-06,0.0,0.0,0.0,0.0,0.0,0.0,0.0,0.0,0.0,9.989738881600891e-11,3.1140830171234166e-10,8.50726906752949e-12,0.0,0.0,0.0,0.0,0.0,0.0,0.0,0.0,0.0
109.305,195,109,305000000,base_footprint,-1.978930878897562e-06,0.0015896501021646855,0.0001995972216032505,0.9999987165839693,0.0,0.0,0.0,0.0,0.0,0.0,0.0,0.0,0.0,-4.897241630325423e-05,-0.00021123888431099627,7.986771349668242e-06,0.0,0.0,0.0,0.0,0.0,0.0,0.0,0.0,0.0,9.894274491249927e-11,3.085813002195275e-10,6.07969978489525e-12,0.0,0.0,0.0,0.0,0.0,0.0,0.0,0.0,0.0
109.305,196,109,306000000,base_footprint,-1.97893378985213e-06,0.0015896501021618321,0.00019959905344215268,0.9999987165836037,0.0,0.0,0.0,0.0,0.0,0.0,0.0,0.0,0.0,-4.897241469684635e-05,-0.00021123888472484505,7.986773252261366e-06,0.0,0.0,0.0,0.0,0.0,0.0,0.0,0.0,0.0,9.908830268958297e-11,3.090596989026055e-10,7.837602780976424e-12,0.0,0.0,0.0,0.0,0.0,0.0,0.0,0.0,0.0
109.307,197,109,307000000,base_footprint,-1.9789367008302413e-06,0.0015896501021589733,0.0001996008852811743,0.9999987165832381,0.0,0.0,0.0,0.0,0.0,0.0,0.0,0.0,0.0,-4.897241314204319e-05,-0.0002112388851658874,7.986775158085268e-06,0.0,0.0,0.0,0.0,0.0,0.0,0.0,0.0,0.0,9.927950686891183e-11,3.095048321446843e-10,7.517768221116803e-12,0.0,0.0,0.0,0.0,0.0,0.0,0.0,0.0,0.0
109.308,198,109,308000000,base_footprint,-1.978939611801131e-06,0.001589650102156112,0.0001996027171203194,0.9999987165828724,0.0,0.0,0.0,0.0,0.0,0.0,0.0,0.0,0.0,-4.8972411525292004e-05,-0.0002112388856009999,7.986777071701063e-06,0.0,0.0,0.0,0.0,0.0,0.0,0.0,0.0,0.0,9.970826480845979e-11,3.1086172493680597e-10,8.95198463046533e-12,0.0,0.0,0.0,0.0,0.0,0.0,0.0,0.0,0.0
109.309,199,109,309000000,base_footprint,-1.9789425227626063e-06,0.0015896501021532543,0.0001996045489595735,0.9999987165825067,0.0,0.0,0.0,0.0,0.0,0.0,0.0,0.0,0.0,-4.897240990447282e-05,-0.00021123888602417028,7.9867789562077e-06,0.0,0.0,0.0,0.0,0.0,0.0,0.0,0.0,0.0,9.812662508057379e-11,3.0615065657161684e-10,7.833551713550319e-12,0.0,0.0,0.0,0.0,0.0,0.0,0.0,0.0,0.0
109.31,200,109,310000000,base_footprint,-1.9789454337303183e-06,0.0015896501021504068,0.00019960638079894705,0.9999987165821411,0.0,0.0,0.0,0.0,0.0,0.0,0.0,0.0,0.0,-4.897240831491465e-05,-0.0002112388864344601,7.986780861770937e-06,0.0,0.0,0.0,0.0,0.0,0.0,0.0,0.0,0.0,9.923050554122747e-11,3.095155941747341e-10,4.4252351764943085e-12,0.0,0.0,0.0,0.0,0.0,0.0,0.0,0.0,0.0
109.311,201,109,311000000,base_footprint,-1.978948344700564e-06,0.0015896501021475595,0.0001996082126384449,0.9999987165817755,0.0,0.0,0.0,0.0,0.0,0.0,0.0,0.0,0.0,-4.897240671785164e-05,-0.00021123888686481348,7.986782777064164e-06,0.0,0.0,0.0,0.0,0.0,0.0,0.0,0.0,0.0,9.978800937107493e-11,3.111034900018604e-10,8.163578776438782e-12,0.0,0.0,0.0,0.0,0.0,0.0,0.0,0.0,0.0
109.312,202,109,312000000,base_footprint,-1.9789512556593007e-06,0.0015896501021447037,0.00019961004447806337,0.9999987165814098,0.0,0.0,0.0,0.0,0.0,0.0,0.0,0.0,0.0,-4.8972405092641856e-05,-0.00021123888731152882,7.98678468484109e-06,0.0,0.0,0.0,0.0,0.0,0.0,0.0,0.0,0.0,9.94065423760294e-11,3.099283197317064e-10,8.748121018025236e-12,0.0,0.0,0.0,0.0,0.0,0.0,0.0,0.0,0.0
109.313,203,109,313000000,base_footprint,-1.9789541666232337e-06,0.0015896501021418494,0.0001996118763177975,0.999998716581044,0.0,0.0,0.0,0.0,0.0,0.0,0.0,0.0,0.0,-4.897240350104322e-05,-0.00021123888773897447,7.986786582920478e-06,0.0,0.0,0.0,0.0,0.0,0.0,0.0,0.0,0.0,9.885388938010376e-11,3.083057759799014e-10,7.065928078206886e-12,0.0,0.0,0.0,0.0,0.0,0.0,0.0,0.0,0.0
109.314,204,109,314000000,base_footprint,-1.978957077593161e-06,0.001589650102138991,0.0001996137081576504,0.9999987165806785,0.0,0.0,0.0,0.0,0.0,0.0,0.0,0.0,0.0,-4.8972401910995083e-05,-0.00021123888817881106,7.986788487090357e-06,0.0,0.0,0.0,0.0,0.0,0.0,0.0,0.0,0.0,9.920119733034668e-11,3.092904401581363e-10,9.373849612762752e-12,0.0,0.0,0.0,0.0,0.0,0.0,0.0,0.0,0.0
109.315,205,109,315000000,base_footprint,-1.9789599885631182e-06,0.0015896501021361266,0.00019961553999762338,0.9999987165803128,0.0,0.0,0.0,0.0,0.0,0.0,0.0,0.0,0.0,-4.8972400308894876e-05,-0.0002112388886206894,7.98679039400224e-06,0.0,0.0,0.0,0.0,0.0,0.0,0.0,0.0,0.0,9.935332271834338e-11,3.097530887992422e-10,9.48572840083404e-12,0.0,0.0,0.0,0.0,0.0,0.0,0.0,0.0,0.0
109.316,206,109,316000000,base_footprint,-1.978962899533441e-06,0.0015896501021332677,0.00019961737183770955,0.9999987165799471,0.0,0.0,0.0,0.0,0.0,0.0,0.0,0.0,0.0,-4.897239870757677e-05,-0.0002112388890394543,7.986792287090312e-06,0.0,0.0,0.0,0.0,0.0,0.0,0.0,0.0,0.0,9.857867798074481e-11,3.0751167078970364e-10,7.212490324123373e-12,0.0,0.0,0.0,0.0,0.0,0.0,0.0,0.0,0.0
109.317,207,109,317000000,base_footprint,-1.9789658104964103e-06,0.0015896501021304104,0.00019961920367792243,0.9999987165795816,0.0,0.0,0.0,0.0,0.0,0.0,0.0,0.0,0.0,-4.897239709065315e-05,-0.00021123888946812178,7.986794206936463e-06,0.0,0.0,0.0,0.0,0.0,0.0,0.0,0.0,0.0,1.0003067714230314e-10,3.1187162175986466e-10,6.918905824081071e-12,0.0,0.0,0.0,0.0,0.0,0.0,0.0,0.0,0.0
109.318,208,109,318000000,base_footprint,-1.9789687214724394e-06,0.0015896501021275585,0.0001996210355182486,0.9999987165792159,0.0,0.0,0.0,0.0,0.0,0.0,0.0,0.0,0.0,-4.897239551492407e-05,-0.00021123888988651112,7.986796100523126e-06,0.0,0.0,0.0,0.0,0.0,0.0,0.0,0.0,0.0,9.860137233881345e-11,3.0755348225228794e-10,7.392857231000643e-12,0.0,0.0,0.0,0.0,0.0,0.0,0.0,0.0,0.0
109.319,209,109,319000000,base_footprint,-1.978971632429071e-06,0.0015896501021247056,0.0001996228673587006,0.9999987165788502,0.0,0.0,0.0,0.0,0.0,0.0,0.0,0.0,0.0,-4.897239387377331e-05,-0.00021123889031938914,7.986798018418615e-06,0.0,0.0,0.0,0.0,0.0,0.0,0.0,0.0,0.0,9.993515181080068e-11,3.11592396855742e-10,7.265323767889908e-12,0.0,0.0,0.0,0.0,0.0,0.0,0.0,0.0,0.0
109.32,210,109,320000000,base_footprint,-1.978974543400353e-06,0.0015896501021218537,0.0001996246991992659,0.9999987165784845,0.0,0.0,0.0,0.0,0.0,0.0,0.0,0.0,0.0,-4.8972392301213465e-05,-0.00021123889074761357,7.986799911939505e-06,0.0,0.0,0.0,0.0,0.0,0.0,0.0,0.0,0.0,9.860292430257323e-11,3.075379896705542e-10,6.05437768556076e-12,0.0,0.0,0.0,0.0,0.0,0.0,0.0,0.0,0.0
109.321,211,109,321000000,base_footprint,-1.9789774543772797e-06,0.0015896501021189996,0.00019962653103995412,0.9999987165781188,0.0,0.0,0.0,0.0,0.0,0.0,0.0,0.0,0.0,-4.897239071034375e-05,-0.0002112388911824268,7.986801824564792e-06,0.0,0.0,0.0,0.0,0.0,0.0,0.0,0.0,0.0,9.965035647018037e-11,3.1066190938879585e-10,9.051239083949473e-12,0.0,0.0,0.0,0.0,0.0,0.0,0.0,0.0,0.0
109.322,212,109,322000000,base_footprint,-1.9789803653307556e-06,0.0015896501021161382,0.00019962836288076621,0.9999987165777531,0.0,0.0,0.0,0.0,0.0,0.0,0.0,0.0,0.0,-4.8972389061144526e-05,-0.0002112388916273186,7.986803738628906e-06,0.0,0.0,0.0,0.0,0.0,0.0,0.0,0.0,0.0,9.975121783143742e-11,3.109836020101614e-10,9.971043309738609e-12,0.0,0.0,0.0,0.0,0.0,0.0,0.0,0.0,0.0
109.323,213,109,323000000,base_footprint,-1.9789832763002875e-06,0.0015896501021132807,0.0001996301947216955,0.9999987165773874,0.0,0.0,0.0,0.0,0.0,0.0,0.0,0.0,0.0,-4.897238749137119e-05,-0.00021123889204988954,7.986805639959766e-06,0.0,0.0,0.0,0.0,0.0,0.0,0.0,0.0,0.0,9.902175836687397e-11,3.087994287164927e-10,7.530625570954473e-12,0.0,0.0,0.0,0.0,0.0,0.0,0.0,0.0,0.0
109.324,214,109,324000000,base_footprint,-1.9789861872731114e-06,0.0015896501021104245,0.00019963202656274768,0.9999987165770217,0.0,0.0,0.0,0.0,0.0,0.0,0.0,0.0,0.0,-4.8972385895727724e-05,-0.00021123889247798313,7.986807552448743e-06,0.0,0.0,0.0,0.0,0.0,0.0,0.0,0.0,0.0,9.963635326218105e-11,3.106470980277581e-10,8.831724835845533e-12,0.0,0.0,0.0,0.0,0.0,0.0,0.0,0.0,0.0
109.325,215,109,325000000,base_footprint,-1.9789890982443958e-06,0.0015896501021075654,0.00019963385840391975,0.999998716576656,0.0,0.0,0.0,0.0,0.0,0.0,0.0,0.0,0.0,-4.897238429053761e-05,-0.00021123889291382818,7.986809458904888e-06,0.0,0.0,0.0,0.0,0.0,0.0,0.0,0.0,0.0,9.932126873078895e-11,3.0968379179113175e-10,8.809352780744343e-12,0.0,0.0,0.0,0.0,0.0,0.0,0.0,0.0,0.0
109.326,216,109,326000000,base_footprint,-1.978992009216271e-06,0.001589650102104697,0.00019963569024521505,0.9999987165762902,0.0,0.0,0.0,0.0,0.0,0.0,0.0,0.0,0.0,-4.897238268959336e-05,-0.000211238893363078,7.98681137198857e-06,0.0,0.0,0.0,0.0,0.0,0.0,0.0,0.0,0.0,9.968059463029425e-11,3.107514400457555e-10,5.66599550552684e-12,0.0,0.0,0.0,0.0,0.0,0.0,0.0,0.0,0.0
109.328,217,109,327000000,base_footprint,-1.9789949201862793e-06,0.0015896501021018358,0.00019963752208662083,0.9999987165759247,0.0,0.0,0.0,0.0,0.0,0.0,0.0,0.0,0.0,-4.897238108387553e-05,-0.00021123889377935563,7.986813259553945e-06,0.0,0.0,0.0,0.0,0.0,0.0,0.0,0.0,0.0,9.828208156992009e-11,3.0662338843200173e-10,7.974849265566276e-12,0.0,0.0,0.0,0.0,0.0,0.0,0.0,0.0,0.0
109.328,218,109,328000000,base_footprint,-1.9789978311498345e-06,0.0015896501020989796,0.00019963935392814275,0.9999987165755588,0.0,0.0,0.0,0.0,0.0,0.0,0.0,0.0,0.0,-4.8972379468927755e-05,-0.000211238894198904,7.986815158527033e-06,0.0,0.0,0.0,0.0,0.0,0.0,0.0,0.0,0.0,9.889944455729582e-11,3.0848632189410513e-10,7.596210625949984e-12,0.0,0.0,0.0,0.0,0.0,0.0,0.0,0.0,0.0
109.329,219,109,329000000,base_footprint,-1.979000742123066e-06,0.0015896501020961243,0.0001996411857697878,0.9999987165751932,0.0,0.0,0.0,0.0,0.0,0.0,0.0,0.0,0.0,-4.8972377886198554e-05,-0.00021123889462857986,7.9868170714969e-06,0.0,0.0,0.0,0.0,0.0,0.0,0.0,0.0,0.0,9.965767433648119e-11,3.1070532756736277e-10,7.579681530503069e-12,0.0,0.0,0.0,0.0,0.0,0.0,0.0,0.0,0.0
109.33,220,109,330000000,base_footprint,-1.979003653097355e-06,0.0015896501020932715,0.00019964301761155167,0.9999987165748274,0.0,0.0,0.0,0.0,0.0,0.0,0.0,0.0,0.0,-4.897237628619064e-05,-0.000211238895052972,7.986818975929687e-06,0.0,0.0,0.0,0.0,0.0,0.0,0.0,0.0,0.0,9.919951886341818e-11,3.093481112618856e-10,8.721120962198335e-12,0.0,0.0,0.0,0.0,0.0,0.0,0.0,0.0,0.0
109.331,221,109,331000000,base_footprint,-1.979006564079232e-06,0.0015896501020904133,0.00019964484945342588,0.9999987165744617,0.0,0.0,0.0,0.0,0.0,0.0,0.0,0.0,0.0,-4.897237469937589e-05,-0.00021123889549453005,7.986820863302508e-06,0.0,0.0,0.0,0.0,0.0,0.0,0.0,0.0,0.0,9.829028222391425e-11,3.065634902942412e-10,6.8782964924602724e-12,0.0,0.0,0.0,0.0,0.0,0.0,0.0,0.0,0.0
109.332,222,109,332000000,base_footprint,-1.979009475045366e-06,0.0015896501020875582,0.0001996466812954275,0.999998716574096,0.0,0.0,0.0,0.0,0.0,0.0,0.0,0.0,0.0,-4.8972373065626586e-05,-0.0002112388959190203,7.986822784503243e-06,0.0,0.0,0.0,0.0,0.0,0.0,0.0,0.0,0.0,1.0009953686212977e-10,3.1211678972923083e-10,6.0951554661124075e-12,0.0,0.0,0.0,0.0,0.0,0.0,0.0,0.0,0.0
109.333,223,109,333000000,base_footprint,-1.979012386007446e-06,0.00158965010208471,0.00019964851313755808,0.9999987165737303,0.0,0.0,0.0,0.0,0.0,0.0,0.0,0.0,0.0,-4.897237145538961e-05,-0.00021123889633525159,7.986824709005768e-06,0.0,0.0,0.0,0.0,0.0,0.0,0.0,0.0,0.0,1.0027159202164749e-10,3.1261581675915635e-10,8.082107858287847e-12,0.0,0.0,0.0,0.0,0.0,0.0,0.0,0.0,0.0
109.334,224,109,334000000,base_footprint,-1.979015296982103e-06,0.001589650102081859,0.00019965034497980083,0.9999987165733646,0.0,0.0,0.0,0.0,0.0,0.0,0.0,0.0,0.0,-4.897236987861961e-05,-0.00021123889677159322,7.986826600243207e-06,0.0,0.0,0.0,0.0,0.0,0.0,0.0,0.0,0.0,9.84939563535294e-11,3.0717436508682557e-10,7.658560246630152e-12,0.0,0.0,0.0,0.0,0.0,0.0,0.0,0.0,0.0
109.335,225,109,335000000,base_footprint,-1.979018207956726e-06,0.0015896501020790084,0.00019965217682215908,0.9999987165729989,0.0,0.0,0.0,0.0,0.0,0.0,0.0,0.0,0.0,-4.89723682764458e-05,-0.00021123889720126615,7.986828497949707e-06,0.0,0.0,0.0,0.0,0.0,0.0,0.0,0.0,0.0,9.884277188120317e-11,3.0826159733432085e-10,8.692790024977196e-12,0.0,0.0,0.0,0.0,0.0,0.0,0.0,0.0,0.0
109.336,226,109,336000000,base_footprint,-1.979021118929307e-06,0.0015896501020761498,0.00019965400866463467,0.9999987165726331,0.0,0.0,0.0,0.0,0.0,0.0,0.0,0.0,0.0,-4.8972366670236645e-05,-0.00021123889764712881,7.986830399345304e-06,0.0,0.0,0.0,0.0,0.0,0.0,0.0,0.0,0.0,9.905745264974501e-11,3.0886548438486087e-10,8.388411371064554e-12,0.0,0.0,0.0,0.0,0.0,0.0,0.0,0.0,0.0
109.337,227,109,337000000,base_footprint,-1.9790240298998347e-06,0.001589650102073289,0.00019965584050723347,0.9999987165722672,0.0,0.0,0.0,0.0,0.0,0.0,0.0,0.0,0.0,-4.897236506398808e-05,-0.00021123889808210474,7.98683231242759e-06,0.0,0.0,0.0,0.0,0.0,0.0,0.0,0.0,0.0,9.96788463794349e-11,3.107593291255464e-10,9.390179733155835e-12,0.0,0.0,0.0,0.0,0.0,0.0,0.0,0.0,0.0
109.337,228,109,338000000,base_footprint,-1.9790269408659065e-06,0.0015896501020704302,0.00019965767234994067,0.9999987165719015,0.0,0.0,0.0,0.0,0.0,0.0,0.0,0.0,0.0,-4.897236345305361e-05,-0.00021123889850878884,7.986834195771043e-06,0.0,0.0,0.0,0.0,0.0,0.0,0.0,0.0,0.0,9.806778707894931e-11,3.059470671067012e-10,8.449684753015223e-12,0.0,0.0,0.0,0.0,0.0,0.0,0.0,0.0,0.0
109.339,229,109,339000000,base_footprint,-1.9790298518432865e-06,0.001589650102067571,0.00019965950419276862,0.9999987165715358,0.0,0.0,0.0,0.0,0.0,0.0,0.0,0.0,0.0,-4.897236187366015e-05,-0.00021123889894009683,7.98683610417365e-06,0.0,0.0,0.0,0.0,0.0,0.0,0.0,0.0,0.0,9.941494183778611e-11,3.0996035129556103e-10,8.331324647415517e-12,0.0,0.0,0.0,0.0,0.0,0.0,0.0,0.0,0.0
109.34,230,109,340000000,base_footprint,-1.9790327628107453e-06,0.0015896501020647102,0.00019966133603571172,0.9999987165711701,0.0,0.0,0.0,0.0,0.0,0.0,0.0,0.0,0.0,-4.8972360251671815e-05,-0.00021123889937349434,7.986838000896246e-06,0.0,0.0,0.0,0.0,0.0,0.0,0.0,0.0,0.0,9.878889572468857e-11,3.081321084188347e-10,6.079784278853429e-12,0.0,0.0,0.0,0.0,0.0,0.0,0.0,0.0,0.0
109.341,231,109,341000000,base_footprint,-1.9790356737858295e-06,0.0015896501020618414,0.00019966316787878278,0.9999987165708044,0.0,0.0,0.0,0.0,0.0,0.0,0.0,0.0,0.0,-4.897235866481668e-05,-0.00021123889982011717,7.986839923631029e-06,0.0,0.0,0.0,0.0,0.0,0.0,0.0,0.0,0.0,1.0020731670006207e-10,3.1229400303461397e-10,9.551977459872108e-12,0.0,0.0,0.0,0.0,0.0,0.0,0.0,0.0,0.0
109.342,232,109,342000000,base_footprint,-1.97903858475749e-06,0.001589650102058974,0.0001996649997219703,0.9999987165704386,0.0,0.0,0.0,0.0,0.0,0.0,0.0,0.0,0.0,-4.897235705582219e-05,-0.0002112389002470863,7.986841823298527e-06,0.0,0.0,0.0,0.0,0.0,0.0,0.0,0.0,0.0,9.894749038774955e-11,3.0858941684245516e-10,8.774990868860954e-12,0.0,0.0,0.0,0.0,0.0,0.0,0.0,0.0,0.0
109.343,233,109,343000000,base_footprint,-1.979041495734775e-06,0.0015896501020561155,0.0001996668315652849,0.9999987165700728,0.0,0.0,0.0,0.0,0.0,0.0,0.0,0.0,0.0,-4.897235546495045e-05,-0.0002112389006596845,7.98684374414671e-06,0.0,0.0,0.0,0.0,0.0,0.0,0.0,0.0,0.0,1.0005445068172597e-10,3.119944324162966e-10,3.988846494257046e-12,0.0,0.0,0.0,0.0,0.0,0.0,0.0,0.0,0.0
109.344,234,109,344000000,base_footprint,-1.9790444067126384e-06,0.0015896501020532647,0.00019966866340871106,0.9999987165697071,0.0,0.0,0.0,0.0,0.0,0.0,0.0,0.0,0.0,-4.8972353864060705e-05,-0.00021123890107523785,7.986845633837911e-06,0.0,0.0,0.0,0.0,0.0,0.0,0.0,0.0,0.0,9.839175974731875e-11,3.069603347796189e-10,6.9051313965336165e-12,0.0,0.0,0.0,0.0,0.0,0.0,0.0,0.0,0.0
109.345,235,109,345000000,base_footprint,-1.9790473176817324e-06,0.0015896501020504178,0.00019967049525225955,0.9999987165693413,0.0,0.0,0.0,0.0,0.0,0.0,0.0,0.0,0.0,-4.8972352244351076e-05,-0.00021123890149750288,7.986847544908705e-06,0.0,0.0,0.0,0.0,0.0,0.0,0.0,0.0,0.0,9.954117147456252e-11,3.104540150492322e-10,3.5264581139699303e-12,0.0,0.0,0.0,0.0,0.0,0.0,0.0,0.0,0.0
109.346,236,109,346000000,base_footprint,-1.9790502286477376e-06,0.0015896501020475733,0.0001996723270959203,0.9999987165689754,0.0,0.0,0.0,0.0,0.0,0.0,0.0,0.0,0.0,-4.897235063618531e-05,-0.0002112389019234642,7.986849436063285e-06,0.0,0.0,0.0,0.0,0.0,0.0,0.0,0.0,0.0,9.849219861504234e-11,3.0720876157810616e-10,1.0122291997457665e-11,0.0,0.0,0.0,0.0,0.0,0.0,0.0,0.0,0.0
109.347,237,109,347000000,base_footprint,-1.9790531396128273e-06,0.0015896501020447246,0.00019967415893970642,0.9999987165686098,0.0,0.0,0.0,0.0,0.0,0.0,0.0,0.0,0.0,-4.8972349032254255e-05,-0.00021123890236314063,7.986851353428943e-06,0.0,0.0,0.0,0.0,0.0,0.0,0.0,0.0,0.0,9.99140342404279e-11,3.11449993893106e-10,9.521512386694946e-12,0.0,0.0,0.0,0.0,0.0,0.0,0.0,0.0,0.0
109.348,238,109,348000000,base_footprint,-1.979056050589277e-06,0.0015896501020418745,0.00019967599078361784,0.999998716568244,0.0,0.0,0.0,0.0,0.0,0.0,0.0,0.0,0.0,-4.897234745290804e-05,-0.00021123890279579256,7.986853270998775e-06,0.0,0.0,0.0,0.0,0.0,0.0,0.0,0.0,0.0,9.991233189989133e-11,3.114454364370516e-10,8.98146043205208e-12,0.0,0.0,0.0,0.0,0.0,0.0,0.0,0.0,0.0
109.349,239,109,349000000,base_footprint,-1.9790589615643094e-06,0.0015896501020390213,0.00019967782262764238,0.9999987165678782,0.0,0.0,0.0,0.0,0.0,0.0,0.0,0.0,0.0,-4.89723458479126e-05,-0.00021123890323214683,7.98685516384636e-06,0.0,0.0,0.0,0.0,0.0,0.0,0.0,0.0,0.0,9.858668979995533e-11,3.0747825251715756e-10,8.054853575265826e-12,0.0,0.0,0.0,0.0,0.0,0.0,0.0,0.0,0.0
109.35,240,109,350000000,base_footprint,-1.979061872536363e-06,0.0015896501020361594,0.00019967965447178915,0.9999987165675124,0.0,0.0,0.0,0.0,0.0,0.0,0.0,0.0,0.0,-4.897234423983318e-05,-0.000211238903679835,7.986857074969843e-06,0.0,0.0,0.0,0.0,0.0,0.0,0.0,0.0,0.0,9.958331848700524e-11,3.1044471904264737e-10,8.415287495236424e-12,0.0,0.0,0.0,0.0,0.0,0.0,0.0,0.0,0.0
109.351,241,109,351000000,base_footprint,-1.9790647835121103e-06,0.001589650102033293,0.00019968148631605153,0.9999987165671468,0.0,0.0,0.0,0.0,0.0,0.0,0.0,0.0,0.0,-4.897234264513762e-05,-0.00021123890412030538,7.986858972895624e-06,0.0,0.0,0.0,0.0,0.0,0.0,0.0,0.0,0.0,9.886986105054958e-11,3.082855273612018e-10,1.0405799256936956e-11,0.0,0.0,0.0,0.0,0.0,0.0,0.0,0.0,0.0
109.352,242,109,352000000,base_footprint,-1.979067694488446e-06,0.0015896501020304175,0.0001996833181604352,0.999998716566781,0.0,0.0,0.0,0.0,0.0,0.0,0.0,0.0,0.0,-4.897234104419721e-05,-0.0002112389045682529,7.98686088231306e-06,0.0,0.0,0.0,0.0,0.0,0.0,0.0,0.0,0.0,9.949509326106953e-11,3.101574043250357e-10,9.86030310453367e-12,0.0,0.0,0.0,0.0,0.0,0.0,0.0,0.0,0.0
109.353,243,109,353000000,base_footprint,-1.9790706054734984e-06,0.0015896501020275517,0.00019968515000493679,0.9999987165664151,0.0,0.0,0.0,0.0,0.0,0.0,0.0,0.0,0.0,-4.8972339459619415e-05,-0.00021123890497896816,7.986862784894394e-06,0.0,0.0,0.0,0.0,0.0,0.0,0.0,0.0,0.0,9.907209995720321e-11,3.0902463314186035e-10,5.194721950824321e-12,0.0,0.0,0.0,0.0,0.0,0.0,0.0,0.0,0.0
109.354,244,109,354000000,base_footprint,-1.979073516451631e-06,0.001589650102024703,0.0001996869818495534,0.9999987165660493,0.0,0.0,0.0,0.0,0.0,0.0,0.0,0.0,0.0,-4.8972337843606075e-05,-0.00021123890537497655,7.986864681476891e-06,0.0,0.0,0.0,0.0,0.0,0.0,0.0,0.0,0.0,9.874327719337775e-11,3.0810030270807543e-10,6.262570965522027e-12,0.0,0.0,0.0,0.0,0.0,0.0,0.0,0.0,0.0
109.355,245,109,355000000,base_footprint,-1.9790764274275746e-06,0.0015896501020218573,0.00019968881369429275,0.9999987165656835,0.0,0.0,0.0,0.0,0.0,0.0,0.0,0.0,0.0,-4.8972336237188806e-05,-0.0002112389057997379,7.986866593506521e-06,0.0,0.0,0.0,0.0,0.0,0.0,0.0,0.0,0.0,9.959434756807595e-11,3.1058902710399723e-10,3.897053529864324e-12,0.0,0.0,0.0,0.0,0.0,0.0,0.0,0.0,0.0
109.356,246,109,356000000,base_footprint,-1.979079338397721e-06,0.0015896501020190074,0.00019969064553915702,0.9999987165653177,0.0,0.0,0.0,0.0,0.0,0.0,0.0,0.0,0.0,-4.897233462347239e-05,-0.00021123890623852228,7.986868509946774e-06,0.0,0.0,0.0,0.0,0.0,0.0,0.0,0.0,0.0,9.986483199552327e-11,3.11314815754623e-10,9.42984379237115e-12,0.0,0.0,0.0,0.0,0.0,0.0,0.0,0.0,0.0
109.357,247,109,357000000,base_footprint,-1.9790822493747233e-06,0.001589650102016161,0.00019969247738413427,0.9999987165649519,0.0,0.0,0.0,0.0,0.0,0.0,0.0,0.0,0.0,-4.897233303513585e-05,-0.00021123890666128922,7.986870402650513e-06,0.0,0.0,0.0,0.0,0.0,0.0,0.0,0.0,0.0,9.856245145196698e-11,3.0742951565833837e-10,8.039724819418496e-12,0.0,0.0,0.0,0.0,0.0,0.0,0.0,0.0,0.0
109.358,248,109,358000000,base_footprint,-1.9790851603558883e-06,0.001589650102013309,0.0001996943092292292,0.999998716564586,0.0,0.0,0.0,0.0,0.0,0.0,0.0,0.0,0.0,-4.897233144143793e-05,-0.00021123890710358334,7.98687230481827e-06,0.0,0.0,0.0,0.0,0.0,0.0,0.0,0.0,0.0,9.909856261697434e-11,3.089716246128177e-10,1.0091448351070359e-11,0.0,0.0,0.0,0.0,0.0,0.0,0.0,0.0,0.0
109.359,249,109,359000000,base_footprint,-1.979088071330943e-06,0.001589650102010452,0.00019969614107444154,0.9999987165642202,0.0,0.0,0.0,0.0,0.0,0.0,0.0,0.0,0.0,-4.89723298270194e-05,-0.00021123890754397962,7.986874206235135e-06,0.0,0.0,0.0,0.0,0.0,0.0,0.0,0.0,0.0,9.905497854655062e-11,3.088812483677203e-10,8.482528306229307e-12,0.0,0.0,0.0,0.0,0.0,0.0,0.0,0.0,0.0
109.36,250,109,360000000,base_footprint,-1.979090982292999e-06,0.0015896501020075898,0.00019969797291977345,0.9999987165638544,0.0,0.0,0.0,0.0,0.0,0.0,0.0,0.0,0.0,-4.89723281988915e-05,-0.00021123890798453612,7.986876111846412e-06,0.0,0.0,0.0,0.0,0.0,0.0,0.0,0.0,0.0,9.927627465800262e-11,3.095819809312034e-10,6.355615769783297e-12,0.0,0.0,0.0,0.0,0.0,0.0,0.0,0.0,0.0
109.361,251,109,361000000,base_footprint,-1.979093893272384e-06,0.0015896501020047345,0.0001996998047652214,0.9999987165634886,0.0,0.0,0.0,0.0,0.0,0.0,0.0,0.0,0.0,-4.8972326631611466e-05,-0.00021123890840154676,7.986878010852984e-06,0.0,0.0,0.0,0.0,0.0,0.0,0.0,0.0,0.0,9.889442956828055e-11,3.084189964305069e-10,8.770904765200967e-12,0.0,0.0,0.0,0.0,0.0,0.0,0.0,0.0,0.0
109.362,252,109,362000000,base_footprint,-1.9790968042492976e-06,0.001589650102001878,0.0001997016366107966,0.9999987165631228,0.0,0.0,0.0,0.0,0.0,0.0,0.0,0.0,0.0,-4.897232502443429e-05,-0.00021123890883411556,7.986879931952988e-06,0.0,0.0,0.0,0.0,0.0,0.0,0.0,0.0,0.0,1.0010278214365394e-10,3.1206000561499666e-10,7.718875008789297e-12,0.0,0.0,0.0,0.0,0.0,0.0,0.0,0.0,0.0
109.363,253,109,363000000,base_footprint,-1.9790997152231497e-06,0.00158965010199902,0.00019970346845649188,0.999998716562757,0.0,0.0,0.0,0.0,0.0,0.0,0.0,0.0,0.0,-4.8972323416144415e-05,-0.0002112389092673601,7.98688183878338e-06,0.0,0.0,0.0,0.0,0.0,0.0,0.0,0.0,0.0,9.9337274597453e-11,3.097490568273271e-10,8.161006267103187e-12,0.0,0.0,0.0,0.0,0.0,0.0,0.0,0.0,0.0
109.364,254,109,364000000,base_footprint,-1.979102626199182e-06,0.001589650101996171,0.0001997053003023028,0.9999987165623911,0.0,0.0,0.0,0.0,0.0,0.0,0.0,0.0,0.0,-4.897232181852079e-05,-0.00021123890968003482,7.986883736701027e-06,0.0,0.0,0.0,0.0,0.0,0.0,0.0,0.0,0.0,9.882857941198605e-11,3.082887609668716e-10,6.2557123002370554e-12,0.0,0.0,0.0,0.0,0.0,0.0,0.0,0.0,0.0
109.366,255,109,365000000,base_footprint,-1.9791055371761417e-06,0.001589650101993306,0.00019970713214823897,0.9999987165620253,0.0,0.0,0.0,0.0,0.0,0.0,0.0,0.0,0.0,-4.89723202181946e-05,-0.0002112389101425566,7.98688565393847e-06,0.0,0.0,0.0,0.0,0.0,0.0,0.0,0.0,0.0,9.992566378063524e-11,3.1142366792025226e-10,8.312624594160756e-12,0.0,0.0,0.0,0.0,0.0,0.0,0.0,0.0,0.0
109.366,256,109,366000000,base_footprint,-1.9791084481505342e-06,0.0015896501019904438,0.0001997089639942843,0.9999987165616595,0.0,0.0,0.0,0.0,0.0,0.0,0.0,0.0,0.0,-4.89723186109843e-05,-0.00021123891056663746,7.986887538862861e-06,0.0,0.0,0.0,0.0,0.0,0.0,0.0,0.0,0.0,9.814901904445806e-11,3.0619769462840726e-10,8.331531210713859e-12,0.0,0.0,0.0,0.0,0.0,0.0,0.0,0.0,0.0
109.367,257,109,367000000,base_footprint,-1.979111359131571e-06,0.0015896501019875922,0.00019971079584044915,0.9999987165612937,0.0,0.0,0.0,0.0,0.0,0.0,0.0,0.0,0.0,-4.897231702229988e-05,-0.00021123891097630056,7.986889444682792e-06,0.0,0.0,0.0,0.0,0.0,0.0,0.0,0.0,0.0,9.925266965018712e-11,3.095558554772012e-10,7.34505749990988e-12,0.0,0.0,0.0,0.0,0.0,0.0,0.0,0.0,0.0
109.368,258,109,368000000,base_footprint,-1.9791142701095634e-06,0.0015896501019847405,0.0001997126276867354,0.9999987165609279,0.0,0.0,0.0,0.0,0.0,0.0,0.0,0.0,0.0,-4.89723154140539e-05,-0.00021123891140673409,7.986891354102485e-06,0.0,0.0,0.0,0.0,0.0,0.0,0.0,0.0,0.0,9.947179480446589e-11,3.1016886149460216e-10,7.649149113547154e-12,0.0,0.0,0.0,0.0,0.0,0.0,0.0,0.0,0.0
109.369,259,109,369000000,base_footprint,-1.9791171810868478e-06,0.001589650101981883,0.00019971445953313743,0.999998716560562,0.0,0.0,0.0,0.0,0.0,0.0,0.0,0.0,0.0,-4.897231381057148e-05,-0.0002112389118490266,7.98689325228944e-06,0.0,0.0,0.0,0.0,0.0,0.0,0.0,0.0,0.0,9.888102496872339e-11,3.0834114925438136e-10,8.434064065058025e-12,0.0,0.0,0.0,0.0,0.0,0.0,0.0,0.0,0.0
109.37,260,109,370000000,base_footprint,-1.9791200920753896e-06,0.0015896501019790161,0.00019971629137965864,0.9999987165601961,0.0,0.0,0.0,0.0,0.0,0.0,0.0,0.0,0.0,-4.897231223108073e-05,-0.00021123891229757495,7.986895157601074e-06,0.0,0.0,0.0,0.0,0.0,0.0,0.0,0.0,0.0,9.926538885552896e-11,3.0945943207271e-10,8.12451536141524e-12,0.0,0.0,0.0,0.0,0.0,0.0,0.0,0.0,0.0
109.371,261,109,371000000,base_footprint,-1.9791230030517354e-06,0.001589650101976155,0.0001997181232262991,0.9999987165598302,0.0,0.0,0.0,0.0,0.0,0.0,0.0,0.0,0.0,-4.8972310604401775e-05,-0.0002112389127167332,7.986897062580017e-06,0.0,0.0,0.0,0.0,0.0,0.0,0.0,0.0,0.0,9.922317992149882e-11,3.0947724252595576e-10,7.191634576488113e-12,0.0,0.0,0.0,0.0,0.0,0.0,0.0,0.0,0.0
109.372,262,109,372000000,base_footprint,-1.9791259140312665e-06,0.0015896501019732974,0.00019971995507304526,0.9999987165594644,0.0,0.0,0.0,0.0,0.0,0.0,0.0,0.0,0.0,-4.897230900890446e-05,-0.00021123891314009177,7.986898940674644e-06,0.0,0.0,0.0,0.0,0.0,0.0,0.0,0.0,0.0,9.778053663350224e-11,3.0507316617947875e-10,8.958858122836596e-12,0.0,0.0,0.0,0.0,0.0,0.0,0.0,0.0,0.0
109.373,263,109,373000000,base_footprint,-1.9791288250019665e-06,0.0015896501019704455,0.0001997217869199262,0.9999987165590986,0.0,0.0,0.0,0.0,0.0,0.0,0.0,0.0,0.0,-4.8972307388930714e-05,-0.00021123891355928382,7.986900876783402e-06,0.0,0.0,0.0,0.0,0.0,0.0,0.0,0.0,0.0,1.0089958557778365e-10,3.1451186390353293e-10,7.870389551529361e-12,0.0,0.0,0.0,0.0,0.0,0.0,0.0,0.0,0.0
109.374,264,109,374000000,base_footprint,-1.9791317359849573e-06,0.0015896501019675852,0.00019972361876692077,0.9999987165587327,0.0,0.0,0.0,0.0,0.0,0.0,0.0,0.0,0.0,-4.897230581157046e-05,-0.0002112389140068283,7.986902770854972e-06,0.0,0.0,0.0,0.0,0.0,0.0,0.0,0.0,0.0,9.865750989644842e-11,3.076343144115088e-10,7.487248193006769e-12,0.0,0.0,0.0,0.0,0.0,0.0,0.0,0.0,0.0
109.376,265,109,375000000,base_footprint,-1.979134646972407e-06,0.0015896501019647322,0.00019972545061403243,0.9999987165583669,0.0,0.0,0.0,0.0,0.0,0.0,0.0,0.0,0.0,-4.897230421831971e-05,-0.00021123891442246647,7.986904671764065e-06,0.0,0.0,0.0,0.0,0.0,0.0,0.0,0.0,0.0,9.899147041068789e-11,3.0876687669843004e-10,6.1549775148956216e-12,0.0,0.0,0.0,0.0,0.0,0.0,0.0,0.0,0.0
109.376,266,109,376000000,base_footprint,-1.9791375579411993e-06,0.0015896501019618758,0.00019972728246126493,0.9999987165580009,0.0,0.0,0.0,0.0,0.0,0.0,0.0,0.0,0.0,-4.897230257884602e-05,-0.0002112389148588427,7.986906579928501e-06,0.0,0.0,0.0,0.0,0.0,0.0,0.0,0.0,0.0,9.941685439886251e-11,3.1001302371645814e-10,8.084586411225863e-12,0.0,0.0,0.0,0.0,0.0,0.0,0.0,0.0,0.0
109.376,267,109,377000000,base_footprint,-1.9791404689152573e-06,0.0015896501019590232,0.0001997291143086209,0.9999987165576351,0.0,0.0,0.0,0.0,0.0,0.0,0.0,0.0,0.0,-4.897230098732302e-05,-0.00021123891528225964,7.98690849352858e-06,0.0,0.0,0.0,0.0,0.0,0.0,0.0,0.0,0.0,9.968357056591972e-11,3.1082077479991603e-10,6.584505935067906e-12,0.0,0.0,0.0,0.0,0.0,0.0,0.0,0.0,0.0
109.377,268,109,378000000,base_footprint,-1.97914337990389e-06,0.001589650101956174,0.00019973094615609617,0.9999987165572691,0.0,0.0,0.0,0.0,0.0,0.0,0.0,0.0,0.0,-4.897229941442971e-05,-0.00021123891570633355,7.986910399012826e-06,0.0,0.0,0.0,0.0,0.0,0.0,0.0,0.0,0.0,9.924833469506505e-11,3.0947710859712453e-10,7.833622348461891e-12,0.0,0.0,0.0,0.0,0.0,0.0,0.0,0.0,0.0
109.379,269,109,379000000,base_footprint,-1.979146290879233e-06,0.0015896501019533164,0.00019973277800369442,0.9999987165569034,0.0,0.0,0.0,0.0,0.0,0.0,0.0,0.0,0.0,-4.897229778559335e-05,-0.00021123891615407444,7.98691231139285e-06,0.0,0.0,0.0,0.0,0.0,0.0,0.0,0.0,0.0,9.966667412502019e-11,3.106799308617312e-10,1.2242918056394674e-11,0.0,0.0,0.0,0.0,0.0,0.0,0.0,0.0,0.0
109.38,270,109,380000000,base_footprint,-1.9791492018609526e-06,0.0015896501019504541,0.00019973460985140944,0.9999987165565375,0.0,0.0,0.0,0.0,0.0,0.0,0.0,0.0,0.0,-4.897229619632162e-05,-0.0002112389165931037,7.986914211787546e-06,0.0,0.0,0.0,0.0,0.0,0.0,0.0,0.0,0.0,9.898476010226781e-11,3.0867737437476644e-10,5.538444232050877e-12,0.0,0.0,0.0,0.0,0.0,0.0,0.0,0.0,0.0
109.381,271,109,381000000,base_footprint,-1.9791521128359664e-06,0.0015896501019475977,0.00019973644169924042,0.9999987165561716,0.0,0.0,0.0,0.0,0.0,0.0,0.0,0.0,0.0,-4.897229458084405e-05,-0.00021123891701161596,7.986916110258303e-06,0.0,0.0,0.0,0.0,0.0,0.0,0.0,0.0,0.0,9.887057058091353e-11,3.0840549467037485e-10,7.2730122133035345e-12,0.0,0.0,0.0,0.0,0.0,0.0,0.0,0.0,0.0
109.382,272,109,382000000,base_footprint,-1.979155023814485e-06,0.0015896501019447393,0.00019973827354718537,0.9999987165558056,0.0,0.0,0.0,0.0,0.0,0.0,0.0,0.0,0.0,-4.8972292985799445e-05,-0.00021123891744627147,7.986918004935772e-06,0.0,0.0,0.0,0.0,0.0,0.0,0.0,0.0,0.0,9.868384148912648e-11,3.077597951471197e-10,8.802843080997071e-12,0.0,0.0,0.0,0.0,0.0,0.0,0.0,0.0,0.0
109.383,273,109,383000000,base_footprint,-1.9791579348024296e-06,0.0015896501019418837,0.0001997401053952424,0.9999987165554397,0.0,0.0,0.0,0.0,0.0,0.0,0.0,0.0,0.0,-4.897229140266092e-05,-0.00021123891787089378,7.986919895955007e-06,0.0,0.0,0.0,0.0,0.0,0.0,0.0,0.0,0.0,9.847099849500181e-11,3.0714892298556554e-10,7.643874401909758e-12,0.0,0.0,0.0,0.0,0.0,0.0,0.0,0.0,0.0
109.384,274,109,384000000,base_footprint,-1.9791608457809387e-06,0.0015896501019390258,0.00019974193724342658,0.9999987165550738,0.0,0.0,0.0,0.0,0.0,0.0,0.0,0.0,0.0,-4.89722897815362e-05,-0.00021123891830596245,7.986921816757073e-06,0.0,0.0,0.0,0.0,0.0,0.0,0.0,0.0,0.0,1.0008984129381699e-10,3.1203307695353405e-10,7.227383880086852e-12,0.0,0.0,0.0,0.0,0.0,0.0,0.0,0.0,0.0
109.385,275,109,385000000,base_footprint,-1.979163756761673e-06,0.0015896501019361663,0.00019974376909172762,0.9999987165547078,0.0,0.0,0.0,0.0,0.0,0.0,0.0,0.0,0.0,-4.897228818395602e-05,-0.00021123891873951178,7.98692371719011e-06,0.0,0.0,0.0,0.0,0.0,0.0,0.0,0.0,0.0,9.899562091117336e-11,3.0869616985937317e-10,9.56025077784969e-12,0.0,0.0,0.0,0.0,0.0,0.0,0.0,0.0,0.0
109.386,276,109,386000000,base_footprint,-1.9791666677328643e-06,0.0015896501019333096,0.00019974560094015645,0.9999987165543421,0.0,0.0,0.0,0.0,0.0,0.0,0.0,0.0,0.0,-4.8972286562650784e-05,-0.00021123891916504132,7.986925639228792e-06,0.0,0.0,0.0,0.0,0.0,0.0,0.0,0.0,0.0,1.001450509716698e-10,3.122336105224007e-10,6.6082264981793205e-12,0.0,0.0,0.0,0.0,0.0,0.0,0.0,0.0,0.0
109.387,277,109,387000000,base_footprint,-1.979169578715857e-06,0.0015896501019304547,0.00019974743278869823,0.9999987165539762,0.0,0.0,0.0,0.0,0.0,0.0,0.0,0.0,0.0,-4.897228498429665e-05,-0.00021123891959142445,7.986927532085616e-06,0.0,0.0,0.0,0.0,0.0,0.0,0.0,0.0,0.0,9.857121612793698e-11,3.07439046850299e-10,7.595022586747617e-12,0.0,0.0,0.0,0.0,0.0,0.0,0.0,0.0,0.0
109.388,278,109,388000000,base_footprint,-1.97917248970573e-06,0.0015896501019276002,0.00019974926463736743,0.9999987165536103,0.0,0.0,0.0,0.0,0.0,0.0,0.0,0.0,0.0,-4.897228339584744e-05,-0.00021123892002097527,7.986929453672328e-06,0.0,0.0,0.0,0.0,0.0,0.0,0.0,0.0,0.0,1.0011863829909111e-10,3.121104817934752e-10,6.5091737933210796e-12,0.0,0.0,0.0,0.0,0.0,0.0,0.0,0.0,0.0
109.389,279,109,389000000,base_footprint,-1.9791754006832004e-06,0.0015896501019247407,0.00019975109648615093,0.9999987165532443,0.0,0.0,0.0,0.0,0.0,0.0,0.0,0.0,0.0,-4.897228176891818e-05,-0.00021123892046125576,7.98693134870621e-06,0.0,0.0,0.0,0.0,0.0,0.0,0.0,0.0,0.0,9.871297870376803e-11,3.0786585718702835e-10,8.345614104981267e-12,0.0,0.0,0.0,0.0,0.0,0.0,0.0,0.0,0.0
109.39,280,109,390000000,base_footprint,-1.979178311657889e-06,0.0015896501019218828,0.00019975292833506323,0.9999987165528784,0.0,0.0,0.0,0.0,0.0,0.0,0.0,0.0,0.0,-4.897228016115478e-05,-0.0002112389208884979,7.986933273017201e-06,0.0,0.0,0.0,0.0,0.0,0.0,0.0,0.0,0.0,1.0027363792129285e-10,3.125812647778413e-10,8.7846949687327e-12,0.0,0.0,0.0,0.0,0.0,0.0,0.0,0.0,0.0
109.391,281,109,391000000,base_footprint,-1.979181222642438e-06,0.0015896501019190244,0.00019975476018408496,0.9999987165525125,0.0,0.0,0.0,0.0,0.0,0.0,0.0,0.0,0.0,-4.897227857896828e-05,-0.00021123892131984928,7.986935158684877e-06,0.0,0.0,0.0,0.0,0.0,0.0,0.0,0.0,0.0,9.81929945440006e-11,3.062800229112077e-10,8.638655380213243e-12,0.0,0.0,0.0,0.0,0.0,0.0,0.0,0.0,0.0
109.393,282,109,392000000,base_footprint,-1.979184133635851e-06,0.0015896501019161645,0.00019975659203322454,0.9999987165521466,0.0,0.0,0.0,0.0,0.0,0.0,0.0,0.0,0.0,-4.897227699460929e-05,-0.000211238921753344,7.986937061222002e-06,0.0,0.0,0.0,0.0,0.0,0.0,0.0,0.0,0.0,9.90982958848061e-11,3.090173979662165e-10,7.1379316965194355e-12,0.0,0.0,0.0,0.0,0.0,0.0,0.0,0.0,0.0
109.393,283,109,393000000,base_footprint,-1.979187044627445e-06,0.0015896501019133044,0.00019975842388248745,0.9999987165517806,0.0,0.0,0.0,0.0,0.0,0.0,0.0,0.0,0.0,-4.897227538873933e-05,-0.0002112389221842289,7.986938974498934e-06,0.0,0.0,0.0,0.0,0.0,0.0,0.0,0.0,0.0,9.968146884527425e-11,3.1079026091044925e-10,8.279440969116074e-12,0.0,0.0,0.0,0.0,0.0,0.0,0.0,0.0,0.0
109.394,284,109,394000000,base_footprint,-1.979189955605762e-06,0.00158965010191045,0.0001997602557318702,0.9999987165514147,0.0,0.0,0.0,0.0,0.0,0.0,0.0,0.0,0.0,-4.897227376003964e-05,-0.00021123892260261145,7.986940880633696e-06,0.0,0.0,0.0,0.0,0.0,0.0,0.0,0.0,0.0,9.928438662223083e-11,3.0966755773955916e-10,7.008282470226847e-12,0.0,0.0,0.0,0.0,0.0,0.0,0.0,0.0,0.0
109.395,285,109,395000000,base_footprint,-1.9791928665831544e-06,0.0015896501019075904,0.00019976208758136878,0.9999987165510488,0.0,0.0,0.0,0.0,0.0,0.0,0.0,0.0,0.0,-4.897227215620246e-05,-0.00021123892304395175,7.98694277899093e-06,0.0,0.0,0.0,0.0,0.0,0.0,0.0,0.0,0.0,9.888986639677636e-11,3.0836940443164873e-10,8.692375310708988e-12,0.0,0.0,0.0,0.0,0.0,0.0,0.0,0.0,0.0
109.395,286,109,396000000,base_footprint,-1.9791957775576046e-06,0.0015896501019047324,0.00019976391943098866,0.9999987165506828,0.0,0.0,0.0,0.0,0.0,0.0,0.0,0.0,0.0,-4.897227054811998e-05,-0.00021123892347092293,7.986944688203812e-06,0.0,0.0,0.0,0.0,0.0,0.0,0.0,0.0,0.0,9.945814558672561e-11,3.1013517018408627e-10,8.02016776295296e-12,0.0,0.0,0.0,0.0,0.0,0.0,0.0,0.0,0.0
109.397,287,109,397000000,base_footprint,-1.9791986885500813e-06,0.0015896501019018786,0.00019976575128072087,0.9999987165503169,0.0,0.0,0.0,0.0,0.0,0.0,0.0,0.0,0.0,-4.897226898226809e-05,-0.00021123892389328814,7.986946579804043e-06,0.0,0.0,0.0,0.0,0.0,0.0,0.0,0.0,0.0,9.849388363991488e-11,3.072166016899411e-10,6.597608660605397e-12,0.0,0.0,0.0,0.0,0.0,0.0,0.0,0.0,0.0
109.398,288,109,398000000,base_footprint,-1.9792015995331403e-06,0.0015896501018990226,0.00019976758313057538,0.999998716549951,0.0,0.0,0.0,0.0,0.0,0.0,0.0,0.0,0.0,-4.897226736117168e-05,-0.00021123892432795902,7.986948490946472e-06,0.0,0.0,0.0,0.0,0.0,0.0,0.0,0.0,0.0,9.957196097396909e-11,3.104676989067739e-10,8.030246648756683e-12,0.0,0.0,0.0,0.0,0.0,0.0,0.0,0.0,0.0
109.399,289,109,399000000,base_footprint,-1.9792045105125283e-06,0.0015896501018961633,0.0001997694149805459,0.999998716549585,0.0,0.0,0.0,0.0,0.0,0.0,0.0,0.0,0.0,-4.8972265751737705e-05,-0.00021123892476465741,7.98695038953425e-06,0.0,0.0,0.0,0.0,0.0,0.0,0.0,0.0,0.0,9.889889528656305e-11,3.0841521644605925e-10,8.771188605327022e-12,0.0,0.0,0.0,0.0,0.0,0.0,0.0,0.0,0.0
109.4,290,109,400000000,base_footprint,-1.979207421484573e-06,0.0015896501018933052,0.00019977124683063512,0.9999987165492191,0.0,0.0,0.0,0.0,0.0,0.0,0.0,0.0,0.0,-4.897226413499907e-05,-0.000211238925193152,7.986952293566067e-06,0.0,0.0,0.0,0.0,0.0,0.0,0.0,0.0,0.0,9.918184926221068e-11,3.0930866224793855e-10,7.852204964271889e-12,0.0,0.0,0.0,0.0,0.0,0.0,0.0,0.0,0.0
109.401,291,109,401000000,base_footprint,-1.9792103324741693e-06,0.0015896501018904507,0.00019977307868083855,0.9999987165488532,0.0,0.0,0.0,0.0,0.0,0.0,0.0,0.0,0.0,-4.897226256812357e-05,-0.00021123892561601142,7.986954188895732e-06,0.0,0.0,0.0,0.0,0.0,0.0,0.0,0.0,0.0,9.869516828251869e-11,3.0782261690215506e-10,6.601580574880554e-12,0.0,0.0,0.0,0.0,0.0,0.0,0.0,0.0,0.0
109.402,292,109,402000000,base_footprint,-1.97921324347252e-06,0.001589650101887596,0.00019977491053117043,0.9999987165484872,0.0,0.0,0.0,0.0,0.0,0.0,0.0,0.0,0.0,-4.897226098344711e-05,-0.00021123892604646657,7.986956112626787e-06,0.0,0.0,0.0,0.0,0.0,0.0,0.0,0.0,0.0,1.0023283670286389e-10,3.1245210413570634e-10,6.000315712084927e-12,0.0,0.0,0.0,0.0,0.0,0.0,0.0,0.0,0.0
109.403,293,109,403000000,base_footprint,-1.979216154453136e-06,0.00158965010188475,0.00019977674238161433,0.9999987165481211,0.0,0.0,0.0,0.0,0.0,0.0,0.0,0.0,0.0,-4.8972259345805016e-05,-0.00021123892645936464,7.986958003039722e-06,0.0,0.0,0.0,0.0,0.0,0.0,0.0,0.0,0.0,9.843627078867161e-11,3.0713331820369423e-10,7.639925809763012e-12,0.0,0.0,0.0,0.0,0.0,0.0,0.0,0.0,0.0
109.403,294,109,404000000,base_footprint,-1.9792190654315028e-06,0.0015896501018819017,0.00019977857423218972,0.9999987165477552,0.0,0.0,0.0,0.0,0.0,0.0,0.0,0.0,0.0,-4.897225773921609e-05,-0.00021123892689482165,7.986959932681711e-06,0.0,0.0,0.0,0.0,0.0,0.0,0.0,0.0,0.0,1.0056943135654683e-10,3.134435095477489e-10,9.103896728420407e-12,0.0,0.0,0.0,0.0,0.0,0.0,0.0,0.0,0.0
109.405,295,109,405000000,base_footprint,-1.979221976423366e-06,0.001589650101879047,0.0001997804060828691,0.9999987165473893,0.0,0.0,0.0,0.0,0.0,0.0,0.0,0.0,0.0,-4.897225616430056e-05,-0.0002112389273381396,7.986961807521398e-06,0.0,0.0,0.0,0.0,0.0,0.0,0.0,0.0,0.0,9.762032670323256e-11,3.0451408914956965e-10,8.38452981027065e-12,0.0,0.0,0.0,0.0,0.0,0.0,0.0,0.0,0.0
109.406,296,109,406000000,base_footprint,-1.9792248874094343e-06,0.0015896501018761815,0.0001997822379336774,0.9999987165470233,0.0,0.0,0.0,0.0,0.0,0.0,0.0,0.0,0.0,-4.89722545503942e-05,-0.0002112389277904987,7.986963731994928e-06,0.0,0.0,0.0,0.0,0.0,0.0,0.0,0.0,0.0,1.0031394727366089e-10,3.1261714345669475e-10,1.0530872749675804e-11,0.0,0.0,0.0,0.0,0.0,0.0,0.0,0.0,0.0
109.406,297,109,407000000,base_footprint,-1.9792277983849615e-06,0.0015896501018733188,0.00019978406978460423,0.9999987165466574,0.0,0.0,0.0,0.0,0.0,0.0,0.0,0.0,0.0,-4.897225292715749e-05,-0.00021123892821475727,7.986965635553475e-06,0.0,0.0,0.0,0.0,0.0,0.0,0.0,0.0,0.0,9.915459413960306e-11,3.0924156038625884e-10,8.159576677435376e-12,0.0,0.0,0.0,0.0,0.0,0.0,0.0,0.0,0.0
109.408,298,109,408000000,base_footprint,-1.9792307093629603e-06,0.0015896501018704526,0.00019978590163564997,0.9999987165462914,0.0,0.0,0.0,0.0,0.0,0.0,0.0,0.0,0.0,-4.89722513300347e-05,-0.0002112389286518998,7.986967540159881e-06,0.0,0.0,0.0,0.0,0.0,0.0,0.0,0.0,0.0,9.921211073452915e-11,3.0937198937870755e-10,6.007457863619701e-12,0.0,0.0,0.0,0.0,0.0,0.0,0.0,0.0,0.0
109.409,299,109,409000000,base_footprint,-1.9792336203541784e-06,0.001589650101867596,0.00019978773348680907,0.9999987165459253,0.0,0.0,0.0,0.0,0.0,0.0,0.0,0.0,0.0,-4.8972249754475556e-05,-0.00021123892906338678,7.986969433745034e-06,0.0,0.0,0.0,0.0,0.0,0.0,0.0,0.0,0.0,9.859532535425027e-11,3.075532385588757e-10,7.913295804546249e-12,0.0,0.0,0.0,0.0,0.0,0.0,0.0,0.0,0.0
109.41,300,109,410000000,base_footprint,-1.979236531340662e-06,0.001589650101864743,0.0001997895653380818,0.9999987165455594,0.0,0.0,0.0,0.0,0.0,0.0,0.0,0.0,0.0,-4.897224814289015e-05,-0.00021123892948669062,7.986971327550267e-06,0.0,0.0,0.0,0.0,0.0,0.0,0.0,0.0,0.0,9.862250482167487e-11,3.0764362690260816e-10,7.010700971704481e-12,0.0,0.0,0.0,0.0,0.0,0.0,0.0,0.0,0.0
109.411,301,109,411000000,base_footprint,-1.979239442327061e-06,0.0015896501018618947,0.00019979139718946738,0.9999987165451933,0.0,0.0,0.0,0.0,0.0,0.0,0.0,0.0,0.0,-4.897224654070399e-05,-0.0002112389299074556,7.98697321988884e-06,0.0,0.0,0.0,0.0,0.0,0.0,0.0,0.0,0.0,9.853347875412114e-11,3.0739165058983367e-10,5.156827450964313e-12,0.0,0.0,0.0,0.0,0.0,0.0,0.0,0.0,0.0
109.412,302,109,412000000,base_footprint,-1.9792423533145718e-06,0.0015896501018590476,0.00019979322904098624,0.9999987165448273,0.0,0.0,0.0,0.0,0.0,0.0,0.0,0.0,0.0,-4.8972244940762244e-05,-0.0002112389303361003,7.986975153148165e-06,0.0,0.0,0.0,0.0,0.0,0.0,0.0,0.0,0.0,1.0075534771208761e-10,3.140195722128768e-10,8.852864551817639e-12,0.0,0.0,0.0,0.0,0.0,0.0,0.0,0.0,0.0
109.413,303,109,413000000,base_footprint,-1.9792452642903454e-06,0.0015896501018561877,0.00019979506089261762,0.9999987165444615,0.0,0.0,0.0,0.0,0.0,0.0,0.0,0.0,0.0,-4.897224331513749e-05,-0.00021123893079268255,7.986977044559858e-06,0.0,0.0,0.0,0.0,0.0,0.0,0.0,0.0,0.0,9.853773517847724e-11,3.0727669998013756e-10,9.405051729918177e-12,0.0,0.0,0.0,0.0,0.0,0.0,0.0,0.0,0.0
109.414,304,109,414000000,base_footprint,-1.9792481752705923e-06,0.0015896501018533306,0.00019979689274437178,0.9999987165440954,0.0,0.0,0.0,0.0,0.0,0.0,0.0,0.0,0.0,-4.8972241721998156e-05,-0.00021123893121670066,7.986978956999594e-06,0.0,0.0,0.0,0.0,0.0,0.0,0.0,0.0,0.0,9.962672335532918e-11,3.1063540604872784e-10,8.196301075698791e-12,0.0,0.0,0.0,0.0,0.0,0.0,0.0,0.0,0.0
109.415,305,109,415000000,base_footprint,-1.9792510862698677e-06,0.001589650101850469,0.0001997987245962453,0.9999987165437294,0.0,0.0,0.0,0.0,0.0,0.0,0.0,0.0,0.0,-4.897224015801429e-05,-0.00021123893165629637,7.986980862740105e-06,0.0,0.0,0.0,0.0,0.0,0.0,0.0,0.0,0.0,9.928067614859047e-11,3.095050948581725e-10,9.28177673946323e-12,0.0,0.0,0.0,0.0,0.0,0.0,0.0,0.0,0.0
109.415,306,109,416000000,base_footprint,-1.9792539972663543e-06,0.001589650101847612,0.00019980055644823895,0.9999987165433634,0.0,0.0,0.0,0.0,0.0,0.0,0.0,0.0,0.0,-4.897223855020947e-05,-0.00021123893207729502,7.986982769600406e-06,0.0,0.0,0.0,0.0,0.0,0.0,0.0,0.0,0.0,9.932709571620497e-11,3.0975341556549236e-10,8.514151297606455e-12,0.0,0.0,0.0,0.0,0.0,0.0,0.0,0.0,0.0
109.417,307,109,417000000,base_footprint,-1.979256908248229e-06,0.0015896501018447535,0.0001998023883003488,0.9999987165429973,0.0,0.0,0.0,0.0,0.0,0.0,0.0,0.0,0.0,-4.8972236918849995e-05,-0.00021123893251022755,7.986984668494858e-06,0.0,0.0,0.0,0.0,0.0,0.0,0.0,0.0,0.0,9.89054609761613e-11,3.0849834131501505e-10,5.7021684468024445e-12,0.0,0.0,0.0,0.0,0.0,0.0,0.0,0.0,0.0
109.417,308,109,418000000,base_footprint,-1.979259819230396e-06,0.0015896501018418958,0.0001998042201525841,0.9999987165426313,0.0,0.0,0.0,0.0,0.0,0.0,0.0,0.0,0.0,-4.8972235317352956e-05,-0.00021123893293956006,7.986986586020519e-06,0.0,0.0,0.0,0.0,0.0,0.0,0.0,0.0,0.0,9.989888827694841e-11,3.1147229271262345e-10,5.564900209138838e-12,0.0,0.0,0.0,0.0,0.0,0.0,0.0,0.0,0.0
109.419,309,109,419000000,base_footprint,-1.9792627302263547e-06,0.0015896501018390478,0.00019980605200493385,0.9999987165422652,0.0,0.0,0.0,0.0,0.0,0.0,0.0,0.0,0.0,-4.897223374296634e-05,-0.00021123893335048795,7.98698848179329e-06,0.0,0.0,0.0,0.0,0.0,0.0,0.0,0.0,0.0,9.871098273227978e-11,3.079056396106159e-10,7.366594203310334e-12,0.0,0.0,0.0,0.0,0.0,0.0,0.0,0.0,0.0
109.42,310,109,420000000,base_footprint,-1.979265641206382e-06,0.0015896501018361922,0.00019980788385740716,0.9999987165418992,0.0,0.0,0.0,0.0,0.0,0.0,0.0,0.0,0.0,-4.897223210884465e-05,-0.00021123893379602343,7.986990395374627e-06,0.0,0.0,0.0,0.0,0.0,0.0,0.0,0.0,0.0,9.97277467148472e-11,3.1088259708897044e-10,1.1547190046938839e-11,0.0,0.0,0.0,0.0,0.0,0.0,0.0,0.0,0.0
109.421,311,109,421000000,base_footprint,-1.979268552190635e-06,0.001589650101833333,0.0001998097157100002,0.9999987165415334,0.0,0.0,0.0,0.0,0.0,0.0,0.0,0.0,0.0,-4.897223051518585e-05,-0.0002112389342345604,7.986992301498186e-06,0.0,0.0,0.0,0.0,0.0,0.0,0.0,0.0,0.0,9.930300022382041e-11,3.096124361346948e-10,8.60364178396272e-12,0.0,0.0,0.0,0.0,0.0,0.0,0.0,0.0,0.0
109.422,312,109,422000000,base_footprint,-1.979271463173794e-06,0.0015896501018304787,0.00019981154756271743,0.9999987165411673,0.0,0.0,0.0,0.0,0.0,0.0,0.0,0.0,0.0,-4.8972228910898196e-05,-0.00021123893465415633,7.986994216672456e-06,0.0,0.0,0.0,0.0,0.0,0.0,0.0,0.0,0.0,9.977152008038904e-11,3.1109535235368325e-10,8.180625791482459e-12,0.0,0.0,0.0,0.0,0.0,0.0,0.0,0.0,0.0
109.423,313,109,423000000,base_footprint,-1.979274374162773e-06,0.0015896501018276212,0.0001998133794155491,0.9999987165408013,0.0,0.0,0.0,0.0,0.0,0.0,0.0,0.0,0.0,-4.897222732049508e-05,-0.00021123893509110436,7.986996112244008e-06,0.0,0.0,0.0,0.0,0.0,0.0,0.0,0.0,0.0,9.87276458850218e-11,3.0789747501149193e-10,6.952909253465246e-12,0.0,0.0,0.0,0.0,0.0,0.0,0.0,0.0,0.0
109.424,314,109,424000000,base_footprint,-1.9792772851594628e-06,0.0015896501018247628,0.00019981521126849453,0.9999987165404353,0.0,0.0,0.0,0.0,0.0,0.0,0.0,0.0,0.0,-4.897222573382786e-05,-0.00021123893552310846,7.986998006553232e-06,0.0,0.0,0.0,0.0,0.0,0.0,0.0,0.0,0.0,9.865293559031133e-11,3.076874448219821e-10,6.687645616925998e-12,0.0,0.0,0.0,0.0,0.0,0.0,0.0,0.0,0.0
109.425,315,109,425000000,base_footprint,-1.9792801961492836e-06,0.0015896501018219083,0.00019981704312156497,0.9999987165400692,0.0,0.0,0.0,0.0,0.0,0.0,0.0,0.0,0.0,-4.897222411785327e-05,-0.00021123893594607004,7.986999923127193e-06,0.0,0.0,0.0,0.0,0.0,0.0,0.0,0.0,0.0,9.984773516901321e-11,3.1134005647947577e-10,6.807334998112316e-12,0.0,0.0,0.0,0.0,0.0,0.0,0.0,0.0,0.0
109.425,316,109,426000000,base_footprint,-1.9792831071379174e-06,0.0015896501018190482,0.00019981887497476467,0.9999987165397032,0.0,0.0,0.0,0.0,0.0,0.0,0.0,0.0,0.0,-4.897222251338095e-05,-0.0002112389363874958,7.98700184833396e-06,0.0,0.0,0.0,0.0,0.0,0.0,0.0,0.0,0.0,1.0033723514779736e-10,3.127211089418362e-10,9.216860458963814e-12,0.0,0.0,0.0,0.0,0.0,0.0,0.0,0.0,0.0
109.427,317,109,427000000,base_footprint,-1.9792860181266168e-06,0.0015896501018161863,0.0001998207068280802,0.9999987165393371,0.0,0.0,0.0,0.0,0.0,0.0,0.0,0.0,0.0,-4.8972220911354386e-05,-0.00021123893682149848,7.987003746717914e-06,0.0,0.0,0.0,0.0,0.0,0.0,0.0,0.0,0.0,9.888382927938848e-11,3.083708938150084e-10,8.756728554295894e-12,0.0,0.0,0.0,0.0,0.0,0.0,0.0,0.0,0.0
109.428,318,109,428000000,base_footprint,-1.979288929116498e-06,0.0015896501018133316,0.00019982253868151072,0.9999987165389711,0.0,0.0,0.0,0.0,0.0,0.0,0.0,0.0,0.0,-4.8972219311666814e-05,-0.00021123893723768293,7.987005643405529e-06,0.0,0.0,0.0,0.0,0.0,0.0,0.0,0.0,0.0,9.876792770702896e-11,3.080927521494667e-10,6.923716728736069e-12,0.0,0.0,0.0,0.0,0.0,0.0,0.0,0.0,0.0
109.429,319,109,429000000,base_footprint,-1.9792918401094116e-06,0.001589650101810485,0.00019982437053505875,0.9999987165386051,0.0,0.0,0.0,0.0,0.0,0.0,0.0,0.0,0.0,-4.8972217715673795e-05,-0.00021123893765169052,7.987007545059695e-06,0.0,0.0,0.0,0.0,0.0,0.0,0.0,0.0,0.0,9.902579164277971e-11,3.088918373243764e-10,4.781766071624134e-12,0.0,0.0,0.0,0.0,0.0,0.0,0.0,0.0,0.0
109.43,320,109,430000000,base_footprint,-1.9792947510840964e-06,0.0015896501018076326,0.00019982620238871742,0.999998716538239,0.0,0.0,0.0,0.0,0.0,0.0,0.0,0.0,0.0,-4.8972216077130944e-05,-0.00021123893809362403,7.987009432767486e-06,0.0,0.0,0.0,0.0,0.0,0.0,0.0,0.0,0.0,9.832729141609952e-11,3.066965978381534e-10,1.0073242946337162e-11,0.0,0.0,0.0,0.0,0.0,0.0,0.0,0.0,0.0
