Time,header.seq,header.stamp.secs,header.stamp.nsecs,header.frame_id,orientation.x,orientation.y,orientation.z,orientation.w,orientation_covariance_0,orientation_covariance_1,orientation_covariance_2,orientation_covariance_3,orientation_covariance_4,orientation_covariance_5,orientation_covariance_6,orientation_covariance_7,orientation_covariance_8,angular_velocity.x,angular_velocity.y,angular_velocity.z,angular_velocity_covariance_0,angular_velocity_covariance_1,angular_velocity_covariance_2,angular_velocity_covariance_3,angular_velocity_covariance_4,angular_velocity_covariance_5,angular_velocity_covariance_6,angular_velocity_covariance_7,angular_velocity_covariance_8,linear_acceleration.x,linear_acceleration.y,linear_acceleration.z,linear_acceleration_covariance_0,linear_acceleration_covariance_1,linear_acceleration_covariance_2,linear_acceleration_covariance_3,linear_acceleration_covariance_4,linear_acceleration_covariance_5,linear_acceleration_covariance_6,linear_acceleration_covariance_7,linear_acceleration_covariance_8
100.629,100389,100,629000000,base_footprint,-1.9536823406843737e-06,0.0015896501266599455,0.00018370866631119343,0.9999987196290723,0.0,0.0,0.0,0.0,0.0,0.0,0.0,0.0,0.0,-4.8986327872045514e-05,-0.00021123513522843193,7.970205136037038e-06,0.0,0.0,0.0,0.0,0.0,0.0,0.0,0.0,0.0,9.925629189315779e-11,3.09371071077014e-10,1.0703553797377722e-11,0.0,0.0,0.0,0.0,0.0,0.0,0.0,0.0,0.0
100.63,100390,100,630000000,base_footprint,-1.953685250036938e-06,0.0015896501266571509,0.00018371049711794055,0.999998719628736,0.0,0.0,0.0,0.0,0.0,0.0,0.0,0.0,0.0,-4.898632624829009e-05,-0.0002112351356626007,7.97020704974543e-06,0.0,0.0,0.0,0.0,0.0,0.0,0.0,0.0,0.0,9.973913260484761e-11,3.108847691298189e-10,6.940272129774325e-12,0.0,0.0,0.0,0.0,0.0,0.0,0.0,0.0,0.0
100.631,100391,100,631000000,base_footprint,-1.953688159393906e-06,0.0015896501266543701,0.0001837123279248047,0.9999987196283997,0.0,0.0,0.0,0.0,0.0,0.0,0.0,0.0,0.0,-4.8986324651584365e-05,-0.00021123513606874716,7.970208959071698e-06,0.0,0.0,0.0,0.0,0.0,0.0,0.0,0.0,0.0,9.946643813074382e-11,3.1013340015893086e-10,5.669244932280299e-12,0.0,0.0,0.0,0.0,0.0,0.0,0.0,0.0,0.0
100.632,100392,100,632000000,base_footprint,-1.953691068750163e-06,0.001589650126651582,0.00018371415873179745,0.9999987196280633,0.0,0.0,0.0,0.0,0.0,0.0,0.0,0.0,0.0,-4.898632304453938e-05,-0.00021123513651751408,7.970210891485044e-06,0.0,0.0,0.0,0.0,0.0,0.0,0.0,0.0,0.0,1.0076714129749789e-10,3.1389032204211704e-10,9.755855619203023e-12,0.0,0.0,0.0,0.0,0.0,0.0,0.0,0.0,0.0
100.635,100393,100,633000000,base_footprint,-1.953693978092621e-06,0.001589650126648791,0.00018371598953890656,0.9999987196277269,0.0,0.0,0.0,0.0,0.0,0.0,0.0,0.0,0.0,-4.898632141119198e-05,-0.00021123513695695258,7.970212799272042e-06,0.0,0.0,0.0,0.0,0.0,0.0,0.0,0.0,0.0,9.943216579630415e-11,3.0993952704130233e-10,8.355214940726352e-12,0.0,0.0,0.0,0.0,0.0,0.0,0.0,0.0,0.0
100.635,100394,100,634000000,base_footprint,-1.953696887445089e-06,0.0015896501266460016,0.00018371782034612582,0.9999987196273905,0.0,0.0,0.0,0.0,0.0,0.0,0.0,0.0,0.0,-4.8986319825795095e-05,-0.00021123513738760535,7.970214694962974e-06,0.0,0.0,0.0,0.0,0.0,0.0,0.0,0.0,0.0,9.875975722975738e-11,3.079066687015816e-10,7.183937474687262e-12,0.0,0.0,0.0,0.0,0.0,0.0,0.0,0.0,0.0
100.635,100395,100,635000000,base_footprint,-1.9536997967964944e-06,0.0015896501266432206,0.00018371965115347022,0.9999987196270543,0.0,0.0,0.0,0.0,0.0,0.0,0.0,0.0,0.0,-4.8986318217983764e-05,-0.00021123513780548755,7.970216620437528e-06,0.0,0.0,0.0,0.0,0.0,0.0,0.0,0.0,0.0,1.0036446345834745e-10,3.127672139962292e-10,1.0397060576135828e-11,0.0,0.0,0.0,0.0,0.0,0.0,0.0,0.0,0.0
100.636,100396,100,636000000,base_footprint,-1.953702706146383e-06,0.001589650126640436,0.00018372148196093413,0.9999987196267179,0.0,0.0,0.0,0.0,0.0,0.0,0.0,0.0,0.0,-4.898631660926793e-05,-0.00021123513824591463,7.970218534771854e-06,0.0,0.0,0.0,0.0,0.0,0.0,0.0,0.0,0.0,9.97800477097098e-11,3.109630533957e-10,7.93503772131507e-12,0.0,0.0,0.0,0.0,0.0,0.0,0.0,0.0,0.0
100.637,100397,100,637000000,base_footprint,-1.953705615507656e-06,0.0015896501266376526,0.0001837233127685189,0.9999987196263815,0.0,0.0,0.0,0.0,0.0,0.0,0.0,0.0,0.0,-4.898631502652072e-05,-0.00021123513867690277,7.970220451928974e-06,0.0,0.0,0.0,0.0,0.0,0.0,0.0,0.0,0.0,9.991516900151551e-11,3.1138115506972723e-10,7.108189293098469e-12,0.0,0.0,0.0,0.0,0.0,0.0,0.0,0.0,0.0
100.638,100398,100,638000000,base_footprint,-1.9537085248510073e-06,0.001589650126634869,0.0001837251435762199,0.9999987196260451,0.0,0.0,0.0,0.0,0.0,0.0,0.0,0.0,0.0,-4.89863133849416e-05,-0.0002112351391113143,7.970222359365467e-06,0.0,0.0,0.0,0.0,0.0,0.0,0.0,0.0,0.0,9.941587300769619e-11,3.098952765887061e-10,1.0320732105403324e-11,0.0,0.0,0.0,0.0,0.0,0.0,0.0,0.0,0.0
100.639,100399,100,639000000,base_footprint,-1.9537114342159966e-06,0.001589650126632079,0.0001837269743840496,0.9999987196257087,0.0,0.0,0.0,0.0,0.0,0.0,0.0,0.0,0.0,-4.898631182269307e-05,-0.0002112351395581901,7.970224292321676e-06,0.0,0.0,0.0,0.0,0.0,0.0,0.0,0.0,0.0,1.0077831691526159e-10,3.139101939902298e-10,7.142764335222101e-12,0.0,0.0,0.0,0.0,0.0,0.0,0.0,0.0,0.0
100.64,100400,100,640000000,base_footprint,-1.953714343573048e-06,0.0015896501266292823,0.000183728805191995,0.9999987196253723,0.0,0.0,0.0,0.0,0.0,0.0,0.0,0.0,0.0,-4.898631020108752e-05,-0.00021123514000526445,7.970226198983043e-06,0.0,0.0,0.0,0.0,0.0,0.0,0.0,0.0,0.0,9.938907496571858e-11,3.0973924157158654e-10,1.2077810379990549e-11,0.0,0.0,0.0,0.0,0.0,0.0,0.0,0.0,0.0
100.641,100401,100,641000000,base_footprint,-1.953717252934036e-06,0.0015896501266264788,0.00018373063600005699,0.999998719625036,0.0,0.0,0.0,0.0,0.0,0.0,0.0,0.0,0.0,-4.898630860345955e-05,-0.00021123514045272336,7.970228107529325e-06,0.0,0.0,0.0,0.0,0.0,0.0,0.0,0.0,0.0,9.947845833813934e-11,3.1000849719432267e-10,9.580872594961517e-12,0.0,0.0,0.0,0.0,0.0,0.0,0.0,0.0,0.0
100.642,100402,100,642000000,base_footprint,-1.9537201622969135e-06,0.0015896501266236904,0.0001837324668082408,0.9999987196246996,0.0,0.0,0.0,0.0,0.0,0.0,0.0,0.0,0.0,-4.8986307001525555e-05,-0.00021123514085612694,7.97023002643256e-06,0.0,0.0,0.0,0.0,0.0,0.0,0.0,0.0,0.0,9.998179221235064e-11,3.11693318482302e-10,6.194110979706803e-12,0.0,0.0,0.0,0.0,0.0,0.0,0.0,0.0,0.0
100.643,100403,100,643000000,base_footprint,-1.953723071654352e-06,0.0015896501266209034,0.00018373429761653874,0.9999987196243632,0.0,0.0,0.0,0.0,0.0,0.0,0.0,0.0,0.0,-4.8986305385026716e-05,-0.0002112351412874581,7.970231929858502e-06,0.0,0.0,0.0,0.0,0.0,0.0,0.0,0.0,0.0,9.918585152057335e-11,3.09207246045731e-10,8.24388745596156e-12,0.0,0.0,0.0,0.0,0.0,0.0,0.0,0.0,0.0
100.644,100404,100,644000000,base_footprint,-1.9537259810054745e-06,0.0015896501266181111,0.0001837361284249528,0.999998719624027,0.0,0.0,0.0,0.0,0.0,0.0,0.0,0.0,0.0,-4.898630376683035e-05,-0.0002112351417324022,7.970233837100658e-06,0.0,0.0,0.0,0.0,0.0,0.0,0.0,0.0,0.0,9.940254235175011e-11,3.09828532937047e-10,7.507215251016578e-12,0.0,0.0,0.0,0.0,0.0,0.0,0.0,0.0,0.0
100.645,100405,100,645000000,base_footprint,-1.9537288903562845e-06,0.0015896501266153156,0.00018373795923349033,0.9999987196236906,0.0,0.0,0.0,0.0,0.0,0.0,0.0,0.0,0.0,-4.89863021606164e-05,-0.00021123514217236808,7.970235759519449e-06,0.0,0.0,0.0,0.0,0.0,0.0,0.0,0.0,0.0,1.0022455100038768e-10,3.1226942110718864e-10,1.1168731609196436e-11,0.0,0.0,0.0,0.0,0.0,0.0,0.0,0.0,0.0
100.646,100406,100,646000000,base_footprint,-1.95373179970292e-06,0.0015896501266125188,0.00018373979004214546,0.9999987196233542,0.0,0.0,0.0,0.0,0.0,0.0,0.0,0.0,0.0,-4.898630054663274e-05,-0.00021123514260869587,7.970237669897968e-06,0.0,0.0,0.0,0.0,0.0,0.0,0.0,0.0,0.0,9.956353531409393e-11,3.103301019565087e-10,7.872810963060077e-12,0.0,0.0,0.0,0.0,0.0,0.0,0.0,0.0,0.0
100.647,100407,100,647000000,base_footprint,-1.953734709062459e-06,0.0015896501266097303,0.00018374162085091887,0.9999987196230178,0.0,0.0,0.0,0.0,0.0,0.0,0.0,0.0,0.0,-4.8986298966884535e-05,-0.00021123514302595303,7.970239581856019e-06,0.0,0.0,0.0,0.0,0.0,0.0,0.0,0.0,0.0,9.96199939164968e-11,3.105341124806972e-10,6.833783429213955e-12,0.0,0.0,0.0,0.0,0.0,0.0,0.0,0.0,0.0
100.648,100408,100,648000000,base_footprint,-1.9537376184209113e-06,0.001589650126606948,0.00018374345165980975,0.9999987196226814,0.0,0.0,0.0,0.0,0.0,0.0,0.0,0.0,0.0,-4.8986297359102736e-05,-0.00021123514344732514,7.970241492096863e-06,0.0,0.0,0.0,0.0,0.0,0.0,0.0,0.0,0.0,9.954484679532314e-11,3.1029848576636746e-10,9.449111928049837e-12,0.0,0.0,0.0,0.0,0.0,0.0,0.0,0.0,0.0
100.649,100409,100,649000000,base_footprint,-1.953740527773851e-06,0.0015896501266041566,0.00018374528246882808,0.999998719622345,0.0,0.0,0.0,0.0,0.0,0.0,0.0,0.0,0.0,-4.8986295742300354e-05,-0.00021123514389912031,7.970243422144202e-06,0.0,0.0,0.0,0.0,0.0,0.0,0.0,0.0,0.0,1.0063767077691264e-10,3.135217898176101e-10,7.648501401009296e-12,0.0,0.0,0.0,0.0,0.0,0.0,0.0,0.0,0.0
100.65,100410,100,650000000,base_footprint,-1.953743437130485e-06,0.0015896501266013663,0.00018374711327796977,0.9999987196220085,0.0,0.0,0.0,0.0,0.0,0.0,0.0,0.0,0.0,-4.8986294144109306e-05,-0.00021123514433038406,7.970245344231512e-06,0.0,0.0,0.0,0.0,0.0,0.0,0.0,0.0,0.0,1.0018806713594012e-10,3.122033609159807e-10,8.444776155392258e-12,0.0,0.0,0.0,0.0,0.0,0.0,0.0,0.0,0.0
100.651,100411,100,651000000,base_footprint,-1.953746346486033e-06,0.0015896501265985766,0.00018374894408722587,0.999998719621672,0.0,0.0,0.0,0.0,0.0,0.0,0.0,0.0,0.0,-4.8986292536327425e-05,-0.00021123514476319708,7.970247248312103e-06,0.0,0.0,0.0,0.0,0.0,0.0,0.0,0.0,0.0,9.92280007590489e-11,3.0930021832120593e-10,1.0488171264673585e-11,0.0,0.0,0.0,0.0,0.0,0.0,0.0,0.0,0.0
100.651,365887,1778966439,417840738,imu_link,0.009064904414117336,-0.021222811192274094,0.2028847336769104,0.9789262413978577,0.0024999999441206455,0.0,0.0,0.0,0.0024999999441206455,0.0,0.0,0.0,0.0024999999441206455,0.0,0.0,0.0,0.019999999552965164,0.0,0.0,0.0,0.019999999552965164,0.0,0.0,0.0,0.019999999552965164,0.4985924959182739,0.1646013706922531,9.579200744628906,0.03999999910593033,0.0,0.0,0.0,0.03999999910593033,0.0,0.0,0.0,0.03999999910593033
100.652,100412,100,652000000,base_footprint,-1.953749255839432e-06,0.00158965012659578,0.00018375077489659946,0.9999987196213356,0.0,0.0,0.0,0.0,0.0,0.0,0.0,0.0,0.0,-4.898629092638306e-05,-0.0002112351452112047,7.970249158543705e-06,0.0,0.0,0.0,0.0,0.0,0.0,0.0,0.0,0.0,9.956702676508758e-11,3.1030021687377996e-10,8.019086692673839e-12,0.0,0.0,0.0,0.0,0.0,0.0,0.0,0.0,0.0
100.653,100413,100,653000000,base_footprint,-1.9537521651975305e-06,0.0015896501265929876,0.0001837526057060962,0.9999987196209992,0.0,0.0,0.0,0.0,0.0,0.0,0.0,0.0,0.0,-4.898628933017159e-05,-0.00021123514563686736,7.970251080171651e-06,0.0,0.0,0.0,0.0,0.0,0.0,0.0,0.0,0.0,1.0015844104512604e-10,3.1212622380000125e-10,8.923121453161913e-12,0.0,0.0,0.0,0.0,0.0,0.0,0.0,0.0,0.0
100.654,100414,100,654000000,base_footprint,-1.953755074566506e-06,0.0015896501265901934,0.00018375443651570675,0.9999987196206628,0.0,0.0,0.0,0.0,0.0,0.0,0.0,0.0,0.0,-4.8986287746342116e-05,-0.00021123514607419196,7.97025298322685e-06,0.0,0.0,0.0,0.0,0.0,0.0,0.0,0.0,0.0,9.916151517218427e-11,3.090974946120437e-10,6.770161163082819e-12,0.0,0.0,0.0,0.0,0.0,0.0,0.0,0.0,0.0
100.655,100415,100,655000000,base_footprint,-1.953757983929359e-06,0.0015896501265874068,0.00018375626732542965,0.9999987196203264,0.0,0.0,0.0,0.0,0.0,0.0,0.0,0.0,0.0,-4.898628612848016e-05,-0.00021123514649254633,7.970254882987453e-06,0.0,0.0,0.0,0.0,0.0,0.0,0.0,0.0,0.0,9.896786236909125e-11,3.0861550707237193e-10,5.8621994419325296e-12,0.0,0.0,0.0,0.0,0.0,0.0,0.0,0.0,0.0
100.656,100416,100,656000000,base_footprint,-1.9537608932795736e-06,0.0015896501265846312,0.0001837580981352711,0.99999871961999,0.0,0.0,0.0,0.0,0.0,0.0,0.0,0.0,0.0,-4.898628449760475e-05,-0.00021123514690439573,7.970256795175615e-06,0.0,0.0,0.0,0.0,0.0,0.0,0.0,0.0,0.0,9.964052647787555e-11,3.106493932896806e-10,8.428993633504845e-12,0.0,0.0,0.0,0.0,0.0,0.0,0.0,0.0,0.0
100.657,100417,100,657000000,base_footprint,-1.9537638026290313e-06,0.0015896501265818515,0.00018375992894523044,0.9999987196196536,0.0,0.0,0.0,0.0,0.0,0.0,0.0,0.0,0.0,-4.898628289050503e-05,-0.0002112351473465179,7.970258706255601e-06,0.0,0.0,0.0,0.0,0.0,0.0,0.0,0.0,0.0,9.961489036594116e-11,3.1043332108547814e-10,1.0702625670634322e-11,0.0,0.0,0.0,0.0,0.0,0.0,0.0,0.0,0.0
100.658,100418,100,658000000,base_footprint,-1.9537667119821007e-06,0.001589650126579061,0.00018376175975531287,0.9999987196193172,0.0,0.0,0.0,0.0,0.0,0.0,0.0,0.0,0.0,-4.898628129210128e-05,-0.00021123514780200573,7.970260627728246e-06,0.0,0.0,0.0,0.0,0.0,0.0,0.0,0.0,0.0,1.0018333204058628e-10,3.121042197803758e-10,9.757326633267395e-12,0.0,0.0,0.0,0.0,0.0,0.0,0.0,0.0,0.0
100.659,100419,100,659000000,base_footprint,-1.953769621341773e-06,0.0015896501265762605,0.0001837635905655116,0.9999987196189808,0.0,0.0,0.0,0.0,0.0,0.0,0.0,0.0,0.0,-4.898627969979201e-05,-0.0002112351482560638,7.970262535759342e-06,0.0,0.0,0.0,0.0,0.0,0.0,0.0,0.0,0.0,9.945722232083346e-11,3.099167029153435e-10,9.750544416543457e-12,0.0,0.0,0.0,0.0,0.0,0.0,0.0,0.0,0.0
100.66,100420,100,660000000,base_footprint,-1.9537725307021034e-06,0.0015896501265734643,0.00018376542137583506,0.9999987196186442,0.0,0.0,0.0,0.0,0.0,0.0,0.0,0.0,0.0,-4.8986278095378826e-05,-0.00021123514868040522,7.97026446059946e-06,0.0,0.0,0.0,0.0,0.0,0.0,0.0,0.0,0.0,1.003302091557716e-10,3.1265919474798533e-10,8.520731692190981e-12,0.0,0.0,0.0,0.0,0.0,0.0,0.0,0.0,0.0
100.661,100421,100,661000000,base_footprint,-1.9537754400684048e-06,0.0015896501265706762,0.0001837672521862697,0.9999987196183078,0.0,0.0,0.0,0.0,0.0,0.0,0.0,0.0,0.0,-4.8986276501773377e-05,-0.0002112351490990199,7.970266358161032e-06,0.0,0.0,0.0,0.0,0.0,0.0,0.0,0.0,0.0,9.884483638952767e-11,3.082220676686079e-10,5.5642319323155166e-12,0.0,0.0,0.0,0.0,0.0,0.0,0.0,0.0,0.0
100.661,365888,1778966439,419840738,imu_link,0.009707687422633171,-0.02146231383085251,0.20287124812602997,0.9789177775382996,0.0024999999441206455,0.0,0.0,0.0,0.0024999999441206455,0.0,0.0,0.0,0.0024999999441206455,0.0,0.0,0.0,0.019999999552965164,0.0,0.0,0.0,0.019999999552965164,0.0,0.0,0.0,0.019999999552965164,0.47884032130241394,0.15981295704841614,9.571419715881348,0.03999999910593033,0.0,0.0,0.0,0.03999999910593033,0.0,0.0,0.0,0.03999999910593033
100.662,100422,100,662000000,base_footprint,-1.9537783494279553e-06,0.0015896501265678876,0.00018376908299682883,0.9999987196179714,0.0,0.0,0.0,0.0,0.0,0.0,0.0,0.0,0.0,-4.8986274882541894e-05,-0.00021123514953342201,7.970268282361551e-06,0.0,0.0,0.0,0.0,0.0,0.0,0.0,0.0,0.0,1.0030939201936905e-10,3.1257814626291266e-10,8.842868892346318e-12,0.0,0.0,0.0,0.0,0.0,0.0,0.0,0.0,0.0
100.662,100423,100,663000000,base_footprint,-1.9537812587841456e-06,0.001589650126565094,0.0001837709138074972,0.999998719617635,0.0,0.0,0.0,0.0,0.0,0.0,0.0,0.0,0.0,-4.898627327033528e-05,-0.00021123514997743435,7.970270176062175e-06,0.0,0.0,0.0,0.0,0.0,0.0,0.0,0.0,0.0,9.868105438019018e-11,3.0762471538969857e-10,1.0384139651462198e-11,0.0,0.0,0.0,0.0,0.0,0.0,0.0,0.0,0.0
100.664,100424,100,664000000,base_footprint,-1.953784168152671e-06,0.0015896501265622906,0.00018377274461828518,0.9999987196172985,0.0,0.0,0.0,0.0,0.0,0.0,0.0,0.0,0.0,-4.8986271689399604e-05,-0.0002112351504308509,7.970272090785082e-06,0.0,0.0,0.0,0.0,0.0,0.0,0.0,0.0,0.0,9.9807386761429e-11,3.109840651501818e-10,7.514582970558719e-12,0.0,0.0,0.0,0.0,0.0,0.0,0.0,0.0,0.0
100.665,100425,100,665000000,base_footprint,-1.9537870775149802e-06,0.0015896501265595005,0.00018377457542919338,0.9999987196169621,0.0,0.0,0.0,0.0,0.0,0.0,0.0,0.0,0.0,-4.898627007124132e-05,-0.00021123515083853718,7.97027400626261e-06,0.0,0.0,0.0,0.0,0.0,0.0,0.0,0.0,0.0,9.980690110892092e-11,3.1116280968700607e-10,6.9581751173518446e-12,0.0,0.0,0.0,0.0,0.0,0.0,0.0,0.0,0.0
100.666,100426,100,666000000,base_footprint,-1.953789986859216e-06,0.0015896501265567169,0.00018377640624023104,0.9999987196166256,0.0,0.0,0.0,0.0,0.0,0.0,0.0,0.0,0.0,-4.898626842932605e-05,-0.0002112351512589179,7.97027594019012e-06,0.0,0.0,0.0,0.0,0.0,0.0,0.0,0.0,0.0,1.0081672183947144e-10,3.1418865342055656e-10,6.800349752533309e-12,0.0,0.0,0.0,0.0,0.0,0.0,0.0,0.0,0.0
100.666,100427,100,667000000,base_footprint,-1.953792896215383e-06,0.001589650126553943,0.00018377823705137734,0.9999987196162891,0.0,0.0,0.0,0.0,0.0,0.0,0.0,0.0,0.0,-4.89862668478444e-05,-0.00021123515167339625,7.970277832950121e-06,0.0,0.0,0.0,0.0,0.0,0.0,0.0,0.0,0.0,9.859460372182685e-11,3.074256106044406e-10,1.0163948535179591e-11,0.0,0.0,0.0,0.0,0.0,0.0,0.0,0.0,0.0
100.667,365889,1778966439,424840738,imu_link,0.009707687422633171,-0.02146231383085251,0.20287124812602997,0.9789177775382996,0.0024999999441206455,0.0,0.0,0.0,0.0024999999441206455,0.0,0.0,0.0,0.0024999999441206455,0.0,0.0,0.0,0.019999999552965164,0.0,0.0,0.0,0.019999999552965164,0.0,0.0,0.0,0.019999999552965164,0.47884032130241394,0.15981295704841614,9.571419715881348,0.03999999910593033,0.0,0.0,0.0,0.03999999910593033,0.0,0.0,0.0,0.03999999910593033
100.668,100428,100,668000000,base_footprint,-1.953795805572796e-06,0.001589650126551162,0.00018378006786264357,0.9999987196159525,0.0,0.0,0.0,0.0,0.0,0.0,0.0,0.0,0.0,-4.898626524465902e-05,-0.0002112351521214061,7.970279748086233e-06,0.0,0.0,0.0,0.0,0.0,0.0,0.0,0.0,0.0,9.982890909415066e-11,3.1108495041381344e-10,7.82592561957784e-12,0.0,0.0,0.0,0.0,0.0,0.0,0.0,0.0,0.0
100.669,100429,100,669000000,base_footprint,-1.9537987149300642e-06,0.0015896501265483737,0.00018378189867403316,0.9999987196156163,0.0,0.0,0.0,0.0,0.0,0.0,0.0,0.0,0.0,-4.8986263638681614e-05,-0.00021123515257089878,7.970281669910874e-06,0.0,0.0,0.0,0.0,0.0,0.0,0.0,0.0,0.0,1.0018821246645223e-10,3.1217277516806224e-10,6.830912342850565e-12,0.0,0.0,0.0,0.0,0.0,0.0,0.0,0.0,0.0
100.67,100430,100,670000000,base_footprint,-1.9538016242848942e-06,0.0015896501265455832,0.00018378372948554472,0.9999987196152798,0.0,0.0,0.0,0.0,0.0,0.0,0.0,0.0,0.0,-4.8986262028113564e-05,-0.0002112351530082871,7.970283589238425e-06,0.0,0.0,0.0,0.0,0.0,0.0,0.0,0.0,0.0,1.0005450937552016e-10,3.117750096713779e-10,1.0593397459977303e-11,0.0,0.0,0.0,0.0,0.0,0.0,0.0,0.0,0.0
100.671,100431,100,671000000,base_footprint,-1.9538045336433614e-06,0.0015896501265427933,0.00018378556029717717,0.9999987196149432,0.0,0.0,0.0,0.0,0.0,0.0,0.0,0.0,0.0,-4.89862604298415e-05,-0.00021123515344096262,7.970285506346619e-06,0.0,0.0,0.0,0.0,0.0,0.0,0.0,0.0,0.0,9.992647845032698e-11,3.113967492601554e-10,1.0105377434719157e-11,0.0,0.0,0.0,0.0,0.0,0.0,0.0,0.0,0.0
100.672,100432,100,672000000,base_footprint,-1.9538074430078306e-06,0.0015896501265399998,0.00018378739110892328,0.9999987196146067,0.0,0.0,0.0,0.0,0.0,0.0,0.0,0.0,0.0,-4.898625883626404e-05,-0.0002112351538822682,7.970287409024355e-06,0.0,0.0,0.0,0.0,0.0,0.0,0.0,0.0,0.0,9.915601021722799e-11,3.0905123902550227e-10,9.69104777534656e-12,0.0,0.0,0.0,0.0,0.0,0.0,0.0,0.0,0.0
100.673,100433,100,673000000,base_footprint,-1.953810352369523e-06,0.0015896501265371971,0.0001837892219207941,0.9999987196142702,0.0,0.0,0.0,0.0,0.0,0.0,0.0,0.0,0.0,-4.898625722498006e-05,-0.00021123515433423177,7.970289333753865e-06,0.0,0.0,0.0,0.0,0.0,0.0,0.0,0.0,0.0,1.0036004219937377e-10,3.1265174706799053e-10,1.068615187831526e-11,0.0,0.0,0.0,0.0,0.0,0.0,0.0,0.0,0.0
100.674,100434,100,674000000,base_footprint,-1.953813261731644e-06,0.0015896501265344018,0.00018379105273278503,0.9999987196139337,0.0,0.0,0.0,0.0,0.0,0.0,0.0,0.0,0.0,-4.898625562016952e-05,-0.00021123515475311686,7.970291249193113e-06,0.0,0.0,0.0,0.0,0.0,0.0,0.0,0.0,0.0,9.98111626996525e-11,3.1113629926481814e-10,6.138202512876918e-12,0.0,0.0,0.0,0.0,0.0,0.0,0.0,0.0,0.0
100.675,100435,100,675000000,base_footprint,-1.953816171105074e-06,0.0015896501265316133,0.00018379288354488434,0.9999987196135972,0.0,0.0,0.0,0.0,0.0,0.0,0.0,0.0,0.0,-4.8986254037362755e-05,-0.0002112351551734215,7.970293141352272e-06,0.0,0.0,0.0,0.0,0.0,0.0,0.0,0.0,0.0,9.855237604390947e-11,3.073302621869572e-10,5.161183163262256e-12,0.0,0.0,0.0,0.0,0.0,0.0,0.0,0.0,0.0
100.676,100436,100,676000000,base_footprint,-1.9538190804729807e-06,0.001589650126528823,0.00018379471435710026,0.9999987196132607,0.0,0.0,0.0,0.0,0.0,0.0,0.0,0.0,0.0,-4.898625242068561e-05,-0.00021123515561069115,7.970295049769327e-06,0.0,0.0,0.0,0.0,0.0,0.0,0.0,0.0,0.0,9.946121390417149e-11,3.1001657191028574e-10,8.58855199395925e-12,0.0,0.0,0.0,0.0,0.0,0.0,0.0,0.0,0.0
100.676,365890,1778966439,429840738,imu_link,0.010385244153439999,-0.02177012711763382,0.20285718142986298,0.9789068102836609,0.0024999999441206455,0.0,0.0,0.0,0.0024999999441206455,0.0,0.0,0.0,0.0024999999441206455,0.0,0.0,0.0,0.019999999552965164,0.0,0.0,0.0,0.019999999552965164,0.0,0.0,0.0,0.019999999552965164,0.48722004890441895,0.16101005673408508,9.604339599609375,0.03999999910593033,0.0,0.0,0.0,0.03999999910593033,0.0,0.0,0.0,0.03999999910593033
100.677,100437,100,677000000,base_footprint,-1.9538219898312547e-06,0.001589650126526032,0.00018379654516943698,0.9999987196129242,0.0,0.0,0.0,0.0,0.0,0.0,0.0,0.0,0.0,-4.898625079573955e-05,-0.0002112351560460764,7.970296966493348e-06,0.0,0.0,0.0,0.0,0.0,0.0,0.0,0.0,0.0,9.991017000199229e-11,3.1137529160549897e-10,9.27887010287318e-12,0.0,0.0,0.0,0.0,0.0,0.0,0.0,0.0,0.0
100.678,100438,100,678000000,base_footprint,-1.953824899195086e-06,0.00158965012652324,0.00018379837598190107,0.9999987196125878,0.0,0.0,0.0,0.0,0.0,0.0,0.0,0.0,0.0,-4.898624920122847e-05,-0.0002112351564823566,7.97029889652102e-06,0.0,0.0,0.0,0.0,0.0,0.0,0.0,0.0,0.0,1.0061492094740687e-10,3.134845418506692e-10,6.909984433676012e-12,0.0,0.0,0.0,0.0,0.0,0.0,0.0,0.0,0.0
100.679,100439,100,679000000,base_footprint,-1.9538278085527105e-06,0.0015896501265204616,0.00018380020679447694,0.9999987196122512,0.0,0.0,0.0,0.0,0.0,0.0,0.0,0.0,0.0,-4.898624758321702e-05,-0.00021123515688810027,7.970300795362227e-06,0.0,0.0,0.0,0.0,0.0,0.0,0.0,0.0,0.0,9.891793899721835e-11,3.0846666103457587e-10,9.6888392601036e-12,0.0,0.0,0.0,0.0,0.0,0.0,0.0,0.0,0.0
100.68,100440,100,680000000,base_footprint,-1.9538307179058185e-06,0.001589650126517676,0.00018380203760717337,0.9999987196119147,0.0,0.0,0.0,0.0,0.0,0.0,0.0,0.0,0.0,-4.898624596855598e-05,-0.00021123515733695235,7.970302711652492e-06,0.0,0.0,0.0,0.0,0.0,0.0,0.0,0.0,0.0,9.990097267754606e-11,3.112892704166988e-10,9.994205718013317e-12,0.0,0.0,0.0,0.0,0.0,0.0,0.0,0.0,0.0
100.681,100441,100,681000000,base_footprint,-1.9538336272576864e-06,0.001589650126514886,0.0001838038684199956,0.9999987196115782,0.0,0.0,0.0,0.0,0.0,0.0,0.0,0.0,0.0,-4.8986244360420395e-05,-0.00021123515777993166,7.970304638508247e-06,0.0,0.0,0.0,0.0,0.0,0.0,0.0,0.0,0.0,1.0045858023033069e-10,3.1299136850893837e-10,8.635580041731685e-12,0.0,0.0,0.0,0.0,0.0,0.0,0.0,0.0,0.0
100.682,100442,100,682000000,base_footprint,-1.9538365366195176e-06,0.001589650126512104,0.00018380569923293123,0.9999987196112418,0.0,0.0,0.0,0.0,0.0,0.0,0.0,0.0,0.0,-4.898624277475846e-05,-0.00021123515819772583,7.970306540628994e-06,0.0,0.0,0.0,0.0,0.0,0.0,0.0,0.0,0.0,9.908979173646307e-11,3.0894878276305037e-10,6.111625192072695e-12,0.0,0.0,0.0,0.0,0.0,0.0,0.0,0.0,0.0
100.683,100443,100,683000000,base_footprint,-1.953839445985716e-06,0.0015896501265093156,0.0001838075300459896,0.9999987196109051,0.0,0.0,0.0,0.0,0.0,0.0,0.0,0.0,0.0,-4.898624117782698e-05,-0.0002112351586436678,7.970308461463979e-06,0.0,0.0,0.0,0.0,0.0,0.0,0.0,0.0,0.0,1.0013045804303797e-10,3.1199883477847745e-10,7.136328251800804e-12,0.0,0.0,0.0,0.0,0.0,0.0,0.0,0.0,0.0
100.684,100444,100,684000000,base_footprint,-1.953842355347194e-06,0.001589650126506521,0.00018380936085915888,0.9999987196105687,0.0,0.0,0.0,0.0,0.0,0.0,0.0,0.0,0.0,-4.8986239562838535e-05,-0.0002112351590910514,7.970310358526151e-06,0.0,0.0,0.0,0.0,0.0,0.0,0.0,0.0,0.0,9.887353538969831e-11,3.0817380428349845e-10,1.2855206889654391e-11,0.0,0.0,0.0,0.0,0.0,0.0,0.0,0.0,0.0
100.684,365891,1778966439,434840738,imu_link,0.011095533147454262,-0.02198462374508381,0.20284171402454376,0.9788974523544312,0.0024999999441206455,0.0,0.0,0.0,0.0024999999441206455,0.0,0.0,0.0,0.0024999999441206455,0.0,0.0,0.0,0.019999999552965164,0.0,0.0,0.0,0.019999999552965164,0.0,0.0,0.0,0.019999999552965164,0.4926069974899292,0.1867477297782898,9.624691009521484,0.03999999910593033,0.0,0.0,0.0,0.03999999910593033,0.0,0.0,0.0,0.03999999910593033
100.685,100445,100,685000000,base_footprint,-1.9538452647181058e-06,0.0015896501265037317,0.00018381119167244666,0.9999987196102321,0.0,0.0,0.0,0.0,0.0,0.0,0.0,0.0,0.0,-4.8986237976125935e-05,-0.00021123515951278047,7.970312271069197e-06,0.0,0.0,0.0,0.0,0.0,0.0,0.0,0.0,0.0,9.966618959170204e-11,3.1063956026811936e-10,9.722249737358216e-12,0.0,0.0,0.0,0.0,0.0,0.0,0.0,0.0,0.0
100.686,100446,100,686000000,base_footprint,-1.9538481740803994e-06,0.001589650126500937,0.00018381302248586238,0.9999987196098956,0.0,0.0,0.0,0.0,0.0,0.0,0.0,0.0,0.0,-4.898623635309658e-05,-0.0002112351599581517,7.970314202018255e-06,0.0,0.0,0.0,0.0,0.0,0.0,0.0,0.0,0.0,1.0068679500022547e-10,3.13677305747961e-10,9.523305336710687e-12,0.0,0.0,0.0,0.0,0.0,0.0,0.0,0.0,0.0
100.686,100447,100,687000000,base_footprint,-1.953851083440448e-06,0.0015896501264981396,0.00018381485329939054,0.9999987196095591,0.0,0.0,0.0,0.0,0.0,0.0,0.0,0.0,0.0,-4.898623474304726e-05,-0.0002112351603973005,7.970316102136323e-06,0.0,0.0,0.0,0.0,0.0,0.0,0.0,0.0,0.0,9.90118222211975e-11,3.086614001774234e-10,7.447665615953906e-12,0.0,0.0,0.0,0.0,0.0,0.0,0.0,0.0,0.0
100.688,100448,100,688000000,base_footprint,-1.953853992812575e-06,0.00158965012649534,0.00018381668411303855,0.9999987196092226,0.0,0.0,0.0,0.0,0.0,0.0,0.0,0.0,0.0,-4.89862331616201e-05,-0.00021123516083577644,7.970318017248696e-06,0.0,0.0,0.0,0.0,0.0,0.0,0.0,0.0,0.0,9.980928860408137e-11,3.110479409544663e-10,6.250885097687231e-12,0.0,0.0,0.0,0.0,0.0,0.0,0.0,0.0,0.0
100.689,100449,100,689000000,base_footprint,-1.9538569021807134e-06,0.0015896501264925417,0.0001838185149268064,0.9999987196088861,0.0,0.0,0.0,0.0,0.0,0.0,0.0,0.0,0.0,-4.8986231547986305e-05,-0.00021123516126703918,7.970319932181506e-06,0.0,0.0,0.0,0.0,0.0,0.0,0.0,0.0,0.0,9.980963868942427e-11,3.110676083209898e-10,9.8287081579082e-12,0.0,0.0,0.0,0.0,0.0,0.0,0.0,0.0,0.0
100.69,100450,100,690000000,base_footprint,-1.9538598115445237e-06,0.0015896501264897529,0.00018382034574069878,0.9999987196085496,0.0,0.0,0.0,0.0,0.0,0.0,0.0,0.0,0.0,-4.898622993363854e-05,-0.00021123516168179997,7.970321856472885e-06,0.0,0.0,0.0,0.0,0.0,0.0,0.0,0.0,0.0,1.0029255865605309e-10,3.125852509639837e-10,8.43529408142736e-12,0.0,0.0,0.0,0.0,0.0,0.0,0.0,0.0,0.0
100.691,100451,100,691000000,base_footprint,-1.9538627209241586e-06,0.0015896501264869656,0.00018382217655471024,0.999998719608213,0.0,0.0,0.0,0.0,0.0,0.0,0.0,0.0,0.0,-4.8986228359743016e-05,-0.00021123516211229304,7.970323770212743e-06,0.0,0.0,0.0,0.0,0.0,0.0,0.0,0.0,0.0,9.9731944367604e-11,3.1081384228445513e-10,8.000724704270239e-12,0.0,0.0,0.0,0.0,0.0,0.0,0.0,0.0,0.0
100.691,365892,1778966439,439840738,imu_link,0.011095533147454262,-0.02198462374508381,0.20284171402454376,0.9788974523544312,0.0024999999441206455,0.0,0.0,0.0,0.0024999999441206455,0.0,0.0,0.0,0.0024999999441206455,0.0,0.0,0.0,0.019999999552965164,0.0,0.0,0.0,0.019999999552965164,0.0,0.0,0.0,0.019999999552965164,0.4926069974899292,0.1867477297782898,9.624691009521484,0.03999999910593033,0.0,0.0,0.0,0.03999999910593033,0.0,0.0,0.0,0.03999999910593033
100.692,100452,100,692000000,base_footprint,-1.953865630286802e-06,0.0015896501264841879,0.00018382400736884189,0.9999987196078763,0.0,0.0,0.0,0.0,0.0,0.0,0.0,0.0,0.0,-4.8986226719983704e-05,-0.0002112351625266323,7.970325685518966e-06,0.0,0.0,0.0,0.0,0.0,0.0,0.0,0.0,0.0,9.980836374601145e-11,3.1116797964139603e-10,7.0987988550744765e-12,0.0,0.0,0.0,0.0,0.0,0.0,0.0,0.0,0.0
100.693,100453,100,693000000,base_footprint,-1.9538685396387877e-06,0.0015896501264813993,0.00018382583818309531,0.9999987196075398,0.0,0.0,0.0,0.0,0.0,0.0,0.0,0.0,0.0,-4.898622509307779e-05,-0.00021123516298279013,7.970327604154677e-06,0.0,0.0,0.0,0.0,0.0,0.0,0.0,0.0,0.0,1.00030767447699e-10,3.1168796158396164e-10,8.136414764308254e-12,0.0,0.0,0.0,0.0,0.0,0.0,0.0,0.0,0.0
100.694,100454,100,694000000,base_footprint,-1.9538714489926072e-06,0.0015896501264786088,0.00018382766899745535,0.9999987196072033,0.0,0.0,0.0,0.0,0.0,0.0,0.0,0.0,0.0,-4.898622349123966e-05,-0.0002112351634207204,7.970329492687671e-06,0.0,0.0,0.0,0.0,0.0,0.0,0.0,0.0,0.0,9.839010851795192e-11,3.067716942078174e-10,8.972501664070199e-12,0.0,0.0,0.0,0.0,0.0,0.0,0.0,0.0,0.0
100.695,100455,100,695000000,base_footprint,-1.9538743583672413e-06,0.001589650126475817,0.00018382949981193714,0.9999987196068668,0.0,0.0,0.0,0.0,0.0,0.0,0.0,0.0,0.0,-4.898622192735953e-05,-0.00021123516385720205,7.970331411750866e-06,0.0,0.0,0.0,0.0,0.0,0.0,0.0,0.0,0.0,1.0002493462637104e-10,3.1166149928120254e-10,8.771047264349544e-12,0.0,0.0,0.0,0.0,0.0,0.0,0.0,0.0,0.0
100.696,100456,100,696000000,base_footprint,-1.9538772677387917e-06,0.0015896501264730306,0.00018383133062654236,0.9999987196065303,0.0,0.0,0.0,0.0,0.0,0.0,0.0,0.0,0.0,-4.89862203154007e-05,-0.00021123516427982165,7.970333333807347e-06,0.0,0.0,0.0,0.0,0.0,0.0,0.0,0.0,0.0,1.0017427060113133e-10,3.1221938051443713e-10,6.697727569312189e-12,0.0,0.0,0.0,0.0,0.0,0.0,0.0,0.0,0.0
100.697,100457,100,697000000,base_footprint,-1.953880177102277e-06,0.001589650126470243,0.00018383316144125956,0.9999987196061937,0.0,0.0,0.0,0.0,0.0,0.0,0.0,0.0,0.0,-4.898621869368642e-05,-0.0002112351647155494,7.970335232980484e-06,0.0,0.0,0.0,0.0,0.0,0.0,0.0,0.0,0.0,9.896499434475077e-11,3.0852612384378346e-10,9.219451029264695e-12,0.0,0.0,0.0,0.0,0.0,0.0,0.0,0.0,0.0
100.697,365893,1778966439,444840738,imu_link,0.011841677129268646,-0.021977005526423454,0.20282386243343353,0.9788926243782043,0.0024999999441206455,0.0,0.0,0.0,0.0024999999441206455,0.0,0.0,0.0,0.0024999999441206455,0.0,0.0,0.0,0.019999999552965164,0.0,0.0,0.0,0.019999999552965164,0.0,0.0,0.0,0.019999999552965164,0.4728548228740692,0.20530278980731964,9.59296703338623,0.03999999910593033,0.0,0.0,0.0,0.03999999910593033,0.0,0.0,0.0,0.03999999910593033
100.698,100458,100,698000000,base_footprint,-1.9538830864669086e-06,0.0015896501264674474,0.00018383499225610914,0.9999987196058572,0.0,0.0,0.0,0.0,0.0,0.0,0.0,0.0,0.0,-4.898621709033678e-05,-0.00021123516516704805,7.970337172955e-06,0.0,0.0,0.0,0.0,0.0,0.0,0.0,0.0,0.0,1.011810287133754e-10,3.1511021210977194e-10,1.1399426107957979e-11,0.0,0.0,0.0,0.0,0.0,0.0,0.0,0.0,0.0
100.699,100459,100,699000000,base_footprint,-1.953885995844696e-06,0.0015896501264646454,0.00018383682307106537,0.9999987196055206,0.0,0.0,0.0,0.0,0.0,0.0,0.0,0.0,0.0,-4.898621551114823e-05,-0.00021123516561294729,7.970339061845395e-06,0.0,0.0,0.0,0.0,0.0,0.0,0.0,0.0,0.0,9.841208282330535e-11,3.0679476682871447e-10,8.37949884340245e-12,0.0,0.0,0.0,0.0,0.0,0.0,0.0,0.0,0.0
100.7,100460,100,700000000,base_footprint,-1.953888905197309e-06,0.0015896501264618457,0.00018383865388613753,0.9999987196051839,0.0,0.0,0.0,0.0,0.0,0.0,0.0,0.0,0.0,-4.898621385499119e-05,-0.0002112351660415299,7.970340968584467e-06,0.0,0.0,0.0,0.0,0.0,0.0,0.0,0.0,0.0,9.936879984177762e-11,3.0980487921995765e-10,8.635725099823571e-12,0.0,0.0,0.0,0.0,0.0,0.0,0.0,0.0,0.0
100.701,100461,100,701000000,base_footprint,-1.9538918145627393e-06,0.001589650126459055,0.0001838404847013298,0.9999987196048473,0.0,0.0,0.0,0.0,0.0,0.0,0.0,0.0,0.0,-4.8986212275208894e-05,-0.00021123516645761285,7.970342884186183e-06,0.0,0.0,0.0,0.0,0.0,0.0,0.0,0.0,0.0,9.980995874508007e-11,3.1112471126879176e-10,5.3517017353328604e-12,0.0,0.0,0.0,0.0,0.0,0.0,0.0,0.0,0.0
100.702,100462,100,702000000,base_footprint,-1.9538947239209925e-06,0.001589650126456267,0.00018384231551664968,0.9999987196045107,0.0,0.0,0.0,0.0,0.0,0.0,0.0,0.0,0.0,-4.898621065501945e-05,-0.0002112351668860184,7.970344814572184e-06,0.0,0.0,0.0,0.0,0.0,0.0,0.0,0.0,0.0,1.006336132628302e-10,3.1358160938151634e-10,7.813828400799452e-12,0.0,0.0,0.0,0.0,0.0,0.0,0.0,0.0,0.0
100.703,100463,100,703000000,base_footprint,-1.9538976332847698e-06,0.0015896501264534783,0.00018384414633207968,0.9999987196041741,0.0,0.0,0.0,0.0,0.0,0.0,0.0,0.0,0.0,-4.898620906055582e-05,-0.00021123516732186916,7.970346710160719e-06,0.0,0.0,0.0,0.0,0.0,0.0,0.0,0.0,0.0,9.876371795504468e-11,3.07903766234494e-10,8.053283001359055e-12,0.0,0.0,0.0,0.0,0.0,0.0,0.0,0.0,0.0
100.704,100464,100,704000000,base_footprint,-1.9539005426480506e-06,0.0015896501264507025,0.00018384597714763117,0.9999987196038375,0.0,0.0,0.0,0.0,0.0,0.0,0.0,0.0,0.0,-4.898620745392421e-05,-0.00021123516772955504,7.970348628367328e-06,0.0,0.0,0.0,0.0,0.0,0.0,0.0,0.0,0.0,9.995547692315574e-11,3.115877215253615e-10,8.225905165539601e-12,0.0,0.0,0.0,0.0,0.0,0.0,0.0,0.0,0.0
100.705,100465,100,705000000,base_footprint,-1.9539034520170625e-06,0.001589650126447919,0.0001838478079632995,0.9999987196035008,0.0,0.0,0.0,0.0,0.0,0.0,0.0,0.0,0.0,-4.8986205859821744e-05,-0.0002112351681791532,7.970350537536579e-06,0.0,0.0,0.0,0.0,0.0,0.0,0.0,0.0,0.0,9.952211846901835e-11,3.1010386375311197e-10,1.2243269291763609e-11,0.0,0.0,0.0,0.0,0.0,0.0,0.0,0.0,0.0
100.706,100466,100,706000000,base_footprint,-1.953906361385761e-06,0.0015896501264451271,0.00018384963877908565,0.9999987196031644,0.0,0.0,0.0,0.0,0.0,0.0,0.0,0.0,0.0,-4.8986204253571686e-05,-0.0002112351686302965,7.970352448277282e-06,0.0,0.0,0.0,0.0,0.0,0.0,0.0,0.0,0.0,9.960150332839907e-11,3.103771757065134e-10,9.538452906816403e-12,0.0,0.0,0.0,0.0,0.0,0.0,0.0,0.0,0.0
100.707,100467,100,707000000,base_footprint,-1.953909270749681e-06,0.0015896501264423336,0.00018385146959498522,0.9999987196028278,0.0,0.0,0.0,0.0,0.0,0.0,0.0,0.0,0.0,-4.898620263833521e-05,-0.0002112351690664028,7.97035435048779e-06,0.0,0.0,0.0,0.0,0.0,0.0,0.0,0.0,0.0,9.91192929479168e-11,3.090084933761331e-10,6.5733357373180274e-12,0.0,0.0,0.0,0.0,0.0,0.0,0.0,0.0,0.0
100.708,100468,100,708000000,base_footprint,-1.9539121801274736e-06,0.0015896501264395402,0.00018385330041101002,0.9999987196024912,0.0,0.0,0.0,0.0,0.0,0.0,0.0,0.0,0.0,-4.8986201060563545e-05,-0.00021123516949978177,7.97035627636731e-06,0.0,0.0,0.0,0.0,0.0,0.0,0.0,0.0,0.0,1.0038750881166862e-10,3.127870766000385e-10,7.570281420274603e-12,0.0,0.0,0.0,0.0,0.0,0.0,0.0,0.0,0.0
100.709,100469,100,709000000,base_footprint,-1.953915089497164e-06,0.0015896501264367473,0.00018385513122715828,0.9999987196021546,0.0,0.0,0.0,0.0,0.0,0.0,0.0,0.0,0.0,-4.898619943850307e-05,-0.00021123516993288045,7.970358198494617e-06,0.0,0.0,0.0,0.0,0.0,0.0,0.0,0.0,0.0,1.0019769207998738e-10,3.1224617304919927e-10,8.98808226028485e-12,0.0,0.0,0.0,0.0,0.0,0.0,0.0,0.0,0.0
100.71,100470,100,710000000,base_footprint,-1.9539179988637393e-06,0.001589650126433966,0.0001838569620434212,0.999998719601818,0.0,0.0,0.0,0.0,0.0,0.0,0.0,0.0,0.0,-4.8986197826725556e-05,-0.00021123517034352148,7.970360103026735e-06,0.0,0.0,0.0,0.0,0.0,0.0,0.0,0.0,0.0,9.922160017606541e-11,3.0937932026612876e-10,7.62807836549627e-12,0.0,0.0,0.0,0.0,0.0,0.0,0.0,0.0,0.0
100.711,100471,100,711000000,base_footprint,-1.953920908226147e-06,0.0015896501264311786,0.0001838587928598055,0.9999987196014813,0.0,0.0,0.0,0.0,0.0,0.0,0.0,0.0,0.0,-4.898619621280195e-05,-0.00021123517078952236,7.970362020973212e-06,0.0,0.0,0.0,0.0,0.0,0.0,0.0,0.0,0.0,9.998437077326396e-11,3.1155662640484966e-10,9.193705917058288e-12,0.0,0.0,0.0,0.0,0.0,0.0,0.0,0.0,0.0
100.712,100472,100,712000000,base_footprint,-1.9539238175913954e-06,0.0015896501264283873,0.00018386062367630626,0.9999987196011447,0.0,0.0,0.0,0.0,0.0,0.0,0.0,0.0,0.0,-4.8986194612868736e-05,-0.00021123517123148894,7.970363929207394e-06,0.0,0.0,0.0,0.0,0.0,0.0,0.0,0.0,0.0,9.945574990715761e-11,3.0996120323742677e-10,9.312149342679293e-12,0.0,0.0,0.0,0.0,0.0,0.0,0.0,0.0,0.0
100.713,100473,100,713000000,base_footprint,-1.953926726969452e-06,0.0015896501264255952,0.00018386245449292845,0.9999987196008081,0.0,0.0,0.0,0.0,0.0,0.0,0.0,0.0,0.0,-4.898619303284949e-05,-0.0002112351716665882,7.970365847543478e-06,0.0,0.0,0.0,0.0,0.0,0.0,0.0,0.0,0.0,9.998439927563987e-11,3.115680262291582e-10,7.830904183555228e-12,0.0,0.0,0.0,0.0,0.0,0.0,0.0,0.0,0.0
100.714,100474,100,714000000,base_footprint,-1.9539296363319492e-06,0.001589650126422799,0.00018386428530967346,0.9999987196004715,0.0,0.0,0.0,0.0,0.0,0.0,0.0,0.0,0.0,-4.898619139596199e-05,-0.00021123517210869602,7.970367768284149e-06,0.0,0.0,0.0,0.0,0.0,0.0,0.0,0.0,0.0,1.0014029060511224e-10,3.1204417384866517e-10,1.0824445844777717e-11,0.0,0.0,0.0,0.0,0.0,0.0,0.0,0.0,0.0
100.715,100475,100,715000000,base_footprint,-1.953932545703783e-06,0.0015896501264200035,0.00018386611612652585,0.9999987196001349,0.0,0.0,0.0,0.0,0.0,0.0,0.0,0.0,0.0,-4.898618980919063e-05,-0.00021123517254112293,7.970369658481781e-06,0.0,0.0,0.0,0.0,0.0,0.0,0.0,0.0,0.0,9.846707354304302e-11,3.0701854538248906e-10,7.58399564889097e-12,0.0,0.0,0.0,0.0,0.0,0.0,0.0,0.0,0.0
100.716,100476,100,716000000,base_footprint,-1.9539354550751242e-06,0.0015896501264172117,0.00018386794694350266,0.9999987195997982,0.0,0.0,0.0,0.0,0.0,0.0,0.0,0.0,0.0,-4.8986188202557354e-05,-0.00021123517296777792,7.970371582491557e-06,0.0,0.0,0.0,0.0,0.0,0.0,0.0,0.0,0.0,1.0028679651319624e-10,3.125281716248293e-10,8.199815884741977e-12,0.0,0.0,0.0,0.0,0.0,0.0,0.0,0.0,0.0
100.717,100477,100,717000000,base_footprint,-1.953938364435968e-06,0.0015896501264144255,0.00018386977776060025,0.9999987195994616,0.0,0.0,0.0,0.0,0.0,0.0,0.0,0.0,0.0,-4.8986186575846666e-05,-0.00021123517339043368,7.97037349919148e-06,0.0,0.0,0.0,0.0,0.0,0.0,0.0,0.0,0.0,9.989504210470565e-11,3.11373831609986e-10,8.798092296030553e-12,0.0,0.0,0.0,0.0,0.0,0.0,0.0,0.0,0.0
100.718,100478,100,718000000,base_footprint,-1.953941273805694e-06,0.001589650126411641,0.00018387160857782494,0.999998719599125,0.0,0.0,0.0,0.0,0.0,0.0,0.0,0.0,0.0,-4.8986184987943016e-05,-0.00021123517382064673,7.970375428729649e-06,0.0,0.0,0.0,0.0,0.0,0.0,0.0,0.0,0.0,1.0058091187082096e-10,3.1339536739350915e-10,6.908215779247631e-12,0.0,0.0,0.0,0.0,0.0,0.0,0.0,0.0,0.0
100.719,100479,100,719000000,base_footprint,-1.953944183179237e-06,0.0015896501264088575,0.0001838734393951548,0.9999987195987884,0.0,0.0,0.0,0.0,0.0,0.0,0.0,0.0,0.0,-4.8986183390095226e-05,-0.00021123517425255338,7.97037731439921e-06,0.0,0.0,0.0,0.0,0.0,0.0,0.0,0.0,0.0,9.822157629213983e-11,3.0630136369790077e-10,6.499907639641451e-12,0.0,0.0,0.0,0.0,0.0,0.0,0.0,0.0,0.0
100.72,100480,100,720000000,base_footprint,-1.953947092542135e-06,0.0015896501264060783,0.00018387527021261054,0.9999987195984518,0.0,0.0,0.0,0.0,0.0,0.0,0.0,0.0,0.0,-4.8986181763052656e-05,-0.0002112351746778602,7.970379241276849e-06,0.0,0.0,0.0,0.0,0.0,0.0,0.0,0.0,0.0,1.0044526347656364e-10,3.130240841317569e-10,8.856949530286731e-12,0.0,0.0,0.0,0.0,0.0,0.0,0.0,0.0,0.0
100.721,100481,100,721000000,base_footprint,-1.9539500018966327e-06,0.0015896501264032817,0.00018387710103018507,0.999998719598115,0.0,0.0,0.0,0.0,0.0,0.0,0.0,0.0,0.0,-4.898618014065976e-05,-0.00021123517514641017,7.970381154137203e-06,0.0,0.0,0.0,0.0,0.0,0.0,0.0,0.0,0.0,9.974575716248945e-11,3.1074497171469207e-10,1.2535508244352867e-11,0.0,0.0,0.0,0.0,0.0,0.0,0.0,0.0,0.0
100.722,100482,100,722000000,base_footprint,-1.953952911265583e-06,0.0015896501264004751,0.00018387893184786998,0.9999987195977783,0.0,0.0,0.0,0.0,0.0,0.0,0.0,0.0,0.0,-4.898617856410009e-05,-0.00021123517559991722,7.97038305036329e-06,0.0,0.0,0.0,0.0,0.0,0.0,0.0,0.0,0.0,9.881576966972793e-11,3.079798904842591e-10,9.052187348989859e-12,0.0,0.0,0.0,0.0,0.0,0.0,0.0,0.0,0.0
100.723,100483,100,723000000,base_footprint,-1.9539558206442834e-06,0.0015896501263976803,0.0001838807626656738,0.9999987195974417,0.0,0.0,0.0,0.0,0.0,0.0,0.0,0.0,0.0,-4.898617697795172e-05,-0.00021123517601052597,7.970384963584424e-06,0.0,0.0,0.0,0.0,0.0,0.0,0.0,0.0,0.0,9.968059660840021e-11,3.10748686409306e-10,6.409596560879806e-12,0.0,0.0,0.0,0.0,0.0,0.0,0.0,0.0,0.0
100.724,100484,100,724000000,base_footprint,-1.9539587300159944e-06,0.0015896501263948908,0.00018388259348359643,0.9999987195971051,0.0,0.0,0.0,0.0,0.0,0.0,0.0,0.0,0.0,-4.898617535824585e-05,-0.00021123517643372607,7.970386876375877e-06,0.0,0.0,0.0,0.0,0.0,0.0,0.0,0.0,0.0,9.968335605555519e-11,3.1072984954480465e-10,8.634063484750491e-12,0.0,0.0,0.0,0.0,0.0,0.0,0.0,0.0,0.0
100.725,100485,100,725000000,base_footprint,-1.953961639386618e-06,0.0015896501263921033,0.0001838844243016505,0.9999987195967684,0.0,0.0,0.0,0.0,0.0,0.0,0.0,0.0,0.0,-4.898617375036207e-05,-0.0002112351768634788,7.970388814479465e-06,0.0,0.0,0.0,0.0,0.0,0.0,0.0,0.0,0.0,1.0105000743030371e-10,3.1481377019823333e-10,8.468851142027698e-12,0.0,0.0,0.0,0.0,0.0,0.0,0.0,0.0,0.0
100.726,100486,100,726000000,base_footprint,-1.9539645487685253e-06,0.0015896501263893193,0.00018388625511981326,0.9999987195964318,0.0,0.0,0.0,0.0,0.0,0.0,0.0,0.0,0.0,-4.8986172167430155e-05,-0.0002112351772904189,7.970390707308019e-06,0.0,0.0,0.0,0.0,0.0,0.0,0.0,0.0,0.0,9.860112408876318e-11,3.0743862079357064e-10,6.968462651435982e-12,0.0,0.0,0.0,0.0,0.0,0.0,0.0,0.0,0.0
100.727,100487,100,727000000,base_footprint,-1.9539674581529485e-06,0.0015896501263865277,0.00018388808593809567,0.9999987195960952,0.0,0.0,0.0,0.0,0.0,0.0,0.0,0.0,0.0,-4.898617056684938e-05,-0.0002112351777396753,7.97039262190179e-06,0.0,0.0,0.0,0.0,0.0,0.0,0.0,0.0,0.0,9.97991241236367e-11,3.1099315378220275e-10,7.472988950036612e-12,0.0,0.0,0.0,0.0,0.0,0.0,0.0,0.0,0.0
100.728,100488,100,728000000,base_footprint,-1.9539703675140787e-06,0.0015896501263837329,0.00018388991675650083,0.9999987195957584,0.0,0.0,0.0,0.0,0.0,0.0,0.0,0.0,0.0,-4.8986168914468345e-05,-0.0002112351781792394,7.970394542420422e-06,0.0,0.0,0.0,0.0,0.0,0.0,0.0,0.0,0.0,1.0012539912463713e-10,3.1203177852129417e-10,9.887663243793191e-12,0.0,0.0,0.0,0.0,0.0,0.0,0.0,0.0,0.0
100.729,100489,100,729000000,base_footprint,-1.9539732768877544e-06,0.0015896501263809495,0.00018389174757502317,0.9999987195954217,0.0,0.0,0.0,0.0,0.0,0.0,0.0,0.0,0.0,-4.8986167334087086e-05,-0.00021123517859082807,7.970396452204343e-06,0.0,0.0,0.0,0.0,0.0,0.0,0.0,0.0,0.0,9.950327332696534e-11,3.101827396976886e-10,8.768897252534256e-12,0.0,0.0,0.0,0.0,0.0,0.0,0.0,0.0,0.0
100.73,100490,100,730000000,base_footprint,-1.9539761862622326e-06,0.0015896501263781603,0.000183893578393657,0.9999987195950851,0.0,0.0,0.0,0.0,0.0,0.0,0.0,0.0,0.0,-4.8986165730106676e-05,-0.00021123517903637234,7.970398350489257e-06,0.0,0.0,0.0,0.0,0.0,0.0,0.0,0.0,0.0,9.892594270492883e-11,3.0835525509407346e-10,9.887773011741554e-12,0.0,0.0,0.0,0.0,0.0,0.0,0.0,0.0,0.0
100.731,100491,100,731000000,base_footprint,-1.953979095632067e-06,0.0015896501263753695,0.00018389540921241433,0.9999987195947484,0.0,0.0,0.0,0.0,0.0,0.0,0.0,0.0,0.0,-4.8986164115098005e-05,-0.00021123517947304257,7.970400272738154e-06,0.0,0.0,0.0,0.0,0.0,0.0,0.0,0.0,0.0,1.0020391832561258e-10,3.1225546716498853e-10,8.301338769343024e-12,0.0,0.0,0.0,0.0,0.0,0.0,0.0,0.0,0.0
100.732,100492,100,732000000,base_footprint,-1.953982005015056e-06,0.0015896501263725751,0.0001838972400313005,0.9999987195944117,0.0,0.0,0.0,0.0,0.0,0.0,0.0,0.0,0.0,-4.898616253578646e-05,-0.00021123517991467305,7.970402205838377e-06,0.0,0.0,0.0,0.0,0.0,0.0,0.0,0.0,0.0,1.0078811601295826e-10,3.139592727435596e-10,8.518876735535071e-12,0.0,0.0,0.0,0.0,0.0,0.0,0.0,0.0,0.0
100.733,100493,100,733000000,base_footprint,-1.953984914381668e-06,0.0015896501263697872,0.000183899070850298,0.9999987195940752,0.0,0.0,0.0,0.0,0.0,0.0,0.0,0.0,0.0,-4.8986160897297874e-05,-0.0002112351803360803,7.970404103400309e-06,0.0,0.0,0.0,0.0,0.0,0.0,0.0,0.0,0.0,9.886127587090136e-11,3.0829035387505666e-10,7.457632568335784e-12,0.0,0.0,0.0,0.0,0.0,0.0,0.0,0.0,0.0
100.734,100494,100,734000000,base_footprint,-1.9539878237433437e-06,0.0015896501263669976,0.00018390090166941865,0.9999987195937384,0.0,0.0,0.0,0.0,0.0,0.0,0.0,0.0,0.0,-4.8986159281825503e-05,-0.00021123518077250392,7.970406025018347e-06,0.0,0.0,0.0,0.0,0.0,0.0,0.0,0.0,0.0,1.0017228196553995e-10,3.1215407233280793e-10,9.143787825900465e-12,0.0,0.0,0.0,0.0,0.0,0.0,0.0,0.0,0.0
100.735,100495,100,735000000,base_footprint,-1.9539907331090225e-06,0.0015896501263642118,0.00018390273248865914,0.9999987195934017,0.0,0.0,0.0,0.0,0.0,0.0,0.0,0.0,0.0,-4.8986157684273585e-05,-0.00021123518119871133,7.970407940065137e-06,0.0,0.0,0.0,0.0,0.0,0.0,0.0,0.0,0.0,9.980704255224536e-11,3.110616379141258e-10,9.612186451323954e-12,0.0,0.0,0.0,0.0,0.0,0.0,0.0,0.0,0.0
100.736,100496,100,736000000,base_footprint,-1.953993642478424e-06,0.001589650126361427,0.00018390456330802062,0.999998719593065,0.0,0.0,0.0,0.0,0.0,0.0,0.0,0.0,0.0,-4.898615608602326e-05,-0.00021123518163062202,7.970409857289583e-06,0.0,0.0,0.0,0.0,0.0,0.0,0.0,0.0,0.0,9.991290804339656e-11,3.1141558796405167e-10,4.2041796535133606e-12,0.0,0.0,0.0,0.0,0.0,0.0,0.0,0.0,0.0
100.737,100497,100,737000000,base_footprint,-1.953996551852512e-06,0.0015896501263586462,0.0001839063941274918,0.9999987195927282,0.0,0.0,0.0,0.0,0.0,0.0,0.0,0.0,0.0,-4.898615448985183e-05,-0.00021123518205629576,7.970411751952363e-06,0.0,0.0,0.0,0.0,0.0,0.0,0.0,0.0,0.0,9.870152279908056e-11,3.077563288430938e-10,7.32249492823013e-12,0.0,0.0,0.0,0.0,0.0,0.0,0.0,0.0,0.0
100.738,100498,100,738000000,base_footprint,-1.9539994612195297e-06,0.0015896501263558578,0.0001839082249470833,0.9999987195923915,0.0,0.0,0.0,0.0,0.0,0.0,0.0,0.0,0.0,-4.8986152870057895e-05,-0.00021123518250571117,7.970413667845236e-06,0.0,0.0,0.0,0.0,0.0,0.0,0.0,0.0,0.0,9.98880581065594e-11,3.112329325863063e-10,1.2368505723638297e-11,0.0,0.0,0.0,0.0,0.0,0.0,0.0,0.0,0.0
100.739,100499,100,739000000,base_footprint,-1.9540023706024367e-06,0.0015896501263530606,0.00018391005576679889,0.9999987195920548,0.0,0.0,0.0,0.0,0.0,0.0,0.0,0.0,0.0,-4.898615129626895e-05,-0.00021123518295686246,7.970415591569723e-06,0.0,0.0,0.0,0.0,0.0,0.0,0.0,0.0,0.0,1.002987308845932e-10,3.124317242834914e-10,1.0729417703482714e-11,0.0,0.0,0.0,0.0,0.0,0.0,0.0,0.0,0.0
100.74,100500,100,740000000,base_footprint,-1.954005279986055e-06,0.0015896501263502642,0.0001839118865866323,0.999998719591718,0.0,0.0,0.0,0.0,0.0,0.0,0.0,0.0,0.0,-4.8986149691887725e-05,-0.00021123518338913476,7.970417502534643e-06,0.0,0.0,0.0,0.0,0.0,0.0,0.0,0.0,0.0,9.958724679053046e-11,3.104105063967708e-10,7.298253899332281e-12,0.0,0.0,0.0,0.0,0.0,0.0,0.0,0.0,0.0
100.741,100501,100,741000000,base_footprint,-1.9540081893551734e-06,0.001589650126347472,0.00018391371740657998,0.9999987195913813,0.0,0.0,0.0,0.0,0.0,0.0,0.0,0.0,0.0,-4.898614805727991e-05,-0.00021123518381445166,7.970419406170351e-06,0.0,0.0,0.0,0.0,0.0,0.0,0.0,0.0,0.0,9.919430500011469e-11,3.092688485021218e-10,8.396889084181974e-12,0.0,0.0,0.0,0.0,0.0,0.0,0.0,0.0,0.0
100.742,100502,100,742000000,base_footprint,-1.9540110987251967e-06,0.0015896501263446827,0.0001839155482266482,0.9999987195910447,0.0,0.0,0.0,0.0,0.0,0.0,0.0,0.0,0.0,-4.8986146453527726e-05,-0.00021123518424261766,7.970421322439168e-06,0.0,0.0,0.0,0.0,0.0,0.0,0.0,0.0,0.0,9.987303684581551e-11,3.112693911501562e-10,8.855293603226287e-12,0.0,0.0,0.0,0.0,0.0,0.0,0.0,0.0,0.0
100.743,100503,100,743000000,base_footprint,-1.9540140080995203e-06,0.001589650126341885,0.00018391737904683406,0.9999987195907081,0.0,0.0,0.0,0.0,0.0,0.0,0.0,0.0,0.0,-4.8986144856547345e-05,-0.00021123518469364205,7.97042323306578e-06,0.0,0.0,0.0,0.0,0.0,0.0,0.0,0.0,0.0,9.959090874197096e-11,3.103444806187531e-10,8.672482517939083e-12,0.0,0.0,0.0,0.0,0.0,0.0,0.0,0.0,0.0
100.744,100504,100,744000000,base_footprint,-1.9540169174731887e-06,0.0015896501263390872,0.00018391920986714295,0.9999987195903713,0.0,0.0,0.0,0.0,0.0,0.0,0.0,0.0,0.0,-4.898614324952449e-05,-0.00021123518512735,7.97042515442425e-06,0.0,0.0,0.0,0.0,0.0,0.0,0.0,0.0,0.0,1.0014903115785086e-10,3.120989159628532e-10,7.454801962881644e-12,0.0,0.0,0.0,0.0,0.0,0.0,0.0,0.0,0.0
100.745,100505,100,745000000,base_footprint,-1.9540198268574574e-06,0.0015896501263362999,0.00018392104068757037,0.9999987195900346,0.0,0.0,0.0,0.0,0.0,0.0,0.0,0.0,0.0,-4.898614166517093e-05,-0.00021123518553983878,7.970427066927375e-06,0.0,0.0,0.0,0.0,0.0,0.0,0.0,0.0,0.0,9.964532484315495e-11,3.1062925890285235e-10,6.8487522702313906e-12,0.0,0.0,0.0,0.0,0.0,0.0,0.0,0.0,0.0
100.745,365894,1778966439,513840738,imu_link,0.018241606652736664,-0.024171046912670135,0.20268172025680542,0.978771984577179,0.0024999999441206455,0.0,0.0,0.0,0.0024999999441206455,0.0,0.0,0.0,0.0024999999441206455,0.0,0.0,0.0,0.019999999552965164,0.0,0.0,0.0,0.019999999552965164,0.0,0.0,0.0,0.019999999552965164,0.48482584953308105,0.17896656692028046,9.607333183288574,0.03999999910593033,0.0,0.0,0.0,0.03999999910593033,0.0,0.0,0.0,0.03999999910593033
100.746,100506,100,746000000,base_footprint,-1.9540227362332696e-06,0.0015896501263335146,0.00018392287150811507,0.9999987195896979,0.0,0.0,0.0,0.0,0.0,0.0,0.0,0.0,0.0,-4.8986140042519486e-05,-0.00021123518596979603,7.970428976613212e-06,0.0,0.0,0.0,0.0,0.0,0.0,0.0,0.0,0.0,9.952239484063435e-11,3.102312483761963e-10,8.40068669556735e-12,0.0,0.0,0.0,0.0,0.0,0.0,0.0,0.0,0.0
100.747,100507,100,747000000,base_footprint,-1.9540256456013354e-06,0.0015896501263307195,0.00018392470232877966,0.9999987195893612,0.0,0.0,0.0,0.0,0.0,0.0,0.0,0.0,0.0,-4.898613842138743e-05,-0.00021123518642339535,7.970430891577156e-06,0.0,0.0,0.0,0.0,0.0,0.0,0.0,0.0,0.0,9.98331770741811e-11,3.11084065689966e-10,9.295921160815314e-12,0.0,0.0,0.0,0.0,0.0,0.0,0.0,0.0,0.0
100.748,100508,100,748000000,base_footprint,-1.9540285549677316e-06,0.001589650126327932,0.0001839265331495606,0.9999987195890244,0.0,0.0,0.0,0.0,0.0,0.0,0.0,0.0,0.0,-4.8986136812469504e-05,-0.00021123518684190023,7.970432799577679e-06,0.0,0.0,0.0,0.0,0.0,0.0,0.0,0.0,0.0,9.941992824267937e-11,3.0993723897973995e-10,9.072978579943392e-12,0.0,0.0,0.0,0.0,0.0,0.0,0.0,0.0,0.0
100.749,100509,100,749000000,base_footprint,-1.95403146433954e-06,0.0015896501263251439,0.00018392836397045813,0.9999987195886877,0.0,0.0,0.0,0.0,0.0,0.0,0.0,0.0,0.0,-4.898613521774396e-05,-0.0002112351872770556,7.970434708073733e-06,0.0,0.0,0.0,0.0,0.0,0.0,0.0,0.0,0.0,9.946050981597998e-11,3.099959541100795e-10,8.952251518810449e-12,0.0,0.0,0.0,0.0,0.0,0.0,0.0,0.0,0.0
100.75,100510,100,750000000,base_footprint,-1.9540343737268435e-06,0.0015896501263223638,0.00018393019479147398,0.9999987195883508,0.0,0.0,0.0,0.0,0.0,0.0,0.0,0.0,0.0,-4.89861336431545e-05,-0.00021123518769448912,7.970436620225553e-06,0.0,0.0,0.0,0.0,0.0,0.0,0.0,0.0,0.0,9.962244754984004e-11,3.1055748986535055e-10,4.583088815190358e-12,0.0,0.0,0.0,0.0,0.0,0.0,0.0,0.0,0.0
100.751,100511,100,751000000,base_footprint,-1.954037283096696e-06,0.0015896501263195884,0.00018393202561261713,0.999998719588014,0.0,0.0,0.0,0.0,0.0,0.0,0.0,0.0,0.0,-4.898613200237654e-05,-0.00021123518811875107,7.970438549841891e-06,0.0,0.0,0.0,0.0,0.0,0.0,0.0,0.0,0.0,1.0059363075424965e-10,3.1348851876632623e-10,8.65004926429415e-12,0.0,0.0,0.0,0.0,0.0,0.0,0.0,0.0,0.0
100.752,100512,100,752000000,base_footprint,-1.9540401924714055e-06,0.0015896501263167968,0.00018393385643387862,0.9999987195876773,0.0,0.0,0.0,0.0,0.0,0.0,0.0,0.0,0.0,-4.8986130406583584e-05,-0.00021123518858578872,7.97044046187051e-06,0.0,0.0,0.0,0.0,0.0,0.0,0.0,0.0,0.0,9.96931225797044e-11,3.105697343696897e-10,1.202448590616133e-11,0.0,0.0,0.0,0.0,0.0,0.0,0.0,0.0,0.0
100.753,100513,100,753000000,base_footprint,-1.9540431018494434e-06,0.001589650126313996,0.0001839356872552519,0.9999987195873405,0.0,0.0,0.0,0.0,0.0,0.0,0.0,0.0,0.0,-4.898612880760441e-05,-0.00021123518903829104,7.970442360848576e-06,0.0,0.0,0.0,0.0,0.0,0.0,0.0,0.0,0.0,9.897412309071585e-11,3.084600061792286e-10,1.1410029781649948e-11,0.0,0.0,0.0,0.0,0.0,0.0,0.0,0.0,0.0
100.753,365895,1778966439,516840738,imu_link,0.01755503937602043,-0.024124158546328545,0.20269985496997833,0.9787818789482117,0.0024999999441206455,0.0,0.0,0.0,0.0024999999441206455,0.0,0.0,0.0,0.0024999999441206455,0.0,0.0,0.0,0.019999999552965164,0.0,0.0,0.0,0.019999999552965164,0.0,0.0,0.0,0.019999999552965164,0.5045779943466187,0.17178396880626678,9.601945877075195,0.03999999910593033,0.0,0.0,0.0,0.03999999910593033,0.0,0.0,0.0,0.03999999910593033
100.754,100514,100,754000000,base_footprint,-1.9540460112301185e-06,0.0015896501263112032,0.000183937518076754,0.9999987195870038,0.0,0.0,0.0,0.0,0.0,0.0,0.0,0.0,0.0,-4.898612720715139e-05,-0.00021123518945548002,7.97044429378985e-06,0.0,0.0,0.0,0.0,0.0,0.0,0.0,0.0,0.0,1.0075112556884298e-10,3.139660193295841e-10,6.334993439914193e-12,0.0,0.0,0.0,0.0,0.0,0.0,0.0,0.0,0.0
100.754,100515,100,755000000,base_footprint,-1.9540489206036375e-06,0.0015896501263084127,0.00018393934889836258,0.9999987195866671,0.0,0.0,0.0,0.0,0.0,0.0,0.0,0.0,0.0,-4.898612558731449e-05,-0.00021123518988507145,7.970446181903942e-06,0.0,0.0,0.0,0.0,0.0,0.0,0.0,0.0,0.0,9.835771432371217e-11,3.067310167133755e-10,7.528257067887756e-12,0.0,0.0,0.0,0.0,0.0,0.0,0.0,0.0,0.0
100.755,100516,100,756000000,base_footprint,-1.95405182997738e-06,0.0015896501263056165,0.0001839411797200964,0.9999987195863304,0.0,0.0,0.0,0.0,0.0,0.0,0.0,0.0,0.0,-4.8986123982103225e-05,-0.00021123519033026256,7.970448107643658e-06,0.0,0.0,0.0,0.0,0.0,0.0,0.0,0.0,0.0,1.0039780906127947e-10,3.1280637783495663e-10,8.091962357038985e-12,0.0,0.0,0.0,0.0,0.0,0.0,0.0,0.0,0.0
100.757,100517,100,757000000,base_footprint,-1.954054739349657e-06,0.0015896501263028208,0.00018394301054195302,0.9999987195859936,0.0,0.0,0.0,0.0,0.0,0.0,0.0,0.0,0.0,-4.898612237350096e-05,-0.00021123519076336818,7.97045002853023e-06,0.0,0.0,0.0,0.0,0.0,0.0,0.0,0.0,0.0,1.0013385703748473e-10,3.1202465448656634e-10,1.0700731032389034e-11,0.0,0.0,0.0,0.0,0.0,0.0,0.0,0.0,0.0
100.757,100518,100,758000000,base_footprint,-1.9540576487197728e-06,0.0015896501263000214,0.00018394484136392453,0.9999987195856569,0.0,0.0,0.0,0.0,0.0,0.0,0.0,0.0,0.0,-4.898612076350581e-05,-0.00021123519120414027,7.970451933607596e-06,0.0,0.0,0.0,0.0,0.0,0.0,0.0,0.0,0.0,9.928247024599124e-11,3.094651089175748e-10,8.215877197263405e-12,0.0,0.0,0.0,0.0,0.0,0.0,0.0,0.0,0.0
100.759,100519,100,759000000,base_footprint,-1.9540605580970123e-06,0.0015896501262972291,0.00018394667218601151,0.9999987195853199,0.0,0.0,0.0,0.0,0.0,0.0,0.0,0.0,0.0,-4.898611917223558e-05,-0.0002112351916228773,7.970453839966864e-06,0.0,0.0,0.0,0.0,0.0,0.0,0.0,0.0,0.0,9.931749284359725e-11,3.0964441725375744e-10,5.5444400166718294e-12,0.0,0.0,0.0,0.0,0.0,0.0,0.0,0.0,0.0
100.759,365896,1778966439,521840738,imu_link,0.01755503937602043,-0.024124158546328545,0.20269985496997833,0.9787818789482117,0.0024999999441206455,0.0,0.0,0.0,0.0024999999441206455,0.0,0.0,0.0,0.0024999999441206455,0.0,0.0,0.0,0.019999999552965164,0.0,0.0,0.0,0.019999999552965164,0.0,0.0,0.0,0.019999999552965164,0.5045779943466187,0.17178396880626678,9.601945877075195,0.03999999910593033,0.0,0.0,0.0,0.03999999910593033,0.0,0.0,0.0,0.03999999910593033
100.76,100520,100,760000000,base_footprint,-1.954063467472529e-06,0.0015896501262944443,0.0001839485030082117,0.9999987195849832,0.0,0.0,0.0,0.0,0.0,0.0,0.0,0.0,0.0,-4.898611756321074e-05,-0.000211235192042985,7.970455741536589e-06,0.0,0.0,0.0,0.0,0.0,0.0,0.0,0.0,0.0,9.907534628375014e-11,3.088953889911825e-10,9.129081960517173e-12,0.0,0.0,0.0,0.0,0.0,0.0,0.0,0.0,0.0
100.761,100521,100,761000000,base_footprint,-1.954066376845309e-06,0.001589650126291653,0.00018395033383053583,0.9999987195846465,0.0,0.0,0.0,0.0,0.0,0.0,0.0,0.0,0.0,-4.8986115952028e-05,-0.00021123519248915007,7.970457664617795e-06,0.0,0.0,0.0,0.0,0.0,0.0,0.0,0.0,0.0,1.0025442689903738e-10,3.123844342859941e-10,7.292986355358292e-12,0.0,0.0,0.0,0.0,0.0,0.0,0.0,0.0,0.0
100.762,100522,100,762000000,base_footprint,-1.9540692862270944e-06,0.0015896501262888613,0.00018395216465297873,0.9999987195843097,0.0,0.0,0.0,0.0,0.0,0.0,0.0,0.0,0.0,-4.898611436448397e-05,-0.00021123519292443803,7.970459577578613e-06,0.0,0.0,0.0,0.0,0.0,0.0,0.0,0.0,0.0,9.97038453809748e-11,3.107082649306792e-10,1.0123509879974943e-11,0.0,0.0,0.0,0.0,0.0,0.0,0.0,0.0,0.0
100.763,100523,100,763000000,base_footprint,-1.9540721956102734e-06,0.0015896501262860716,0.00018395399547553508,0.9999987195839729,0.0,0.0,0.0,0.0,0.0,0.0,0.0,0.0,0.0,-4.898611276165753e-05,-0.00021123519335335258,7.970461479892187e-06,0.0,0.0,0.0,0.0,0.0,0.0,0.0,0.0,0.0,9.911976864191646e-11,3.0900633367977085e-10,7.989620936484425e-12,0.0,0.0,0.0,0.0,0.0,0.0,0.0,0.0,0.0
100.764,100524,100,764000000,base_footprint,-1.954075104988638e-06,0.0015896501262832874,0.0001839558262982174,0.9999987195836362,0.0,0.0,0.0,0.0,0.0,0.0,0.0,0.0,0.0,-4.898611114626026e-05,-0.00021123519377726403,7.970463406871156e-06,0.0,0.0,0.0,0.0,0.0,0.0,0.0,0.0,0.0,1.0044201897430336e-10,3.130225883121985e-10,7.155573610474097e-12,0.0,0.0,0.0,0.0,0.0,0.0,0.0,0.0,0.0
100.764,365897,1778966439,526840738,imu_link,0.016867240890860558,-0.02384326606988907,0.20271506905555725,0.9787978529930115,0.0024999999441206455,0.0,0.0,0.0,0.0024999999441206455,0.0,0.0,0.0,0.0024999999441206455,0.0,0.0,0.0,0.019999999552965164,0.0,0.0,0.0,0.019999999552965164,0.0,0.0,0.0,0.019999999552965164,0.4800374209880829,0.17238251864910126,9.615114212036133,0.03999999910593033,0.0,0.0,0.0,0.03999999910593033,0.0,0.0,0.0,0.03999999910593033
100.765,100525,100,765000000,base_footprint,-1.954078014362248e-06,0.0015896501262804962,0.00018395765712102583,0.9999987195832993,0.0,0.0,0.0,0.0,0.0,0.0,0.0,0.0,0.0,-4.8986109531064464e-05,-0.00021123519422496052,7.970465334327467e-06,0.0,0.0,0.0,0.0,0.0,0.0,0.0,0.0,0.0,1.004981820521036e-10,3.13099263690232e-10,9.061546951661945e-12,0.0,0.0,0.0,0.0,0.0,0.0,0.0,0.0,0.0
100.766,100526,100,766000000,base_footprint,-1.954080923740558e-06,0.0015896501262777005,0.0001839594879439396,0.9999987195829625,0.0,0.0,0.0,0.0,0.0,0.0,0.0,0.0,0.0,-4.8986107935002626e-05,-0.00021123519466765132,7.97046722040396e-06,0.0,0.0,0.0,0.0,0.0,0.0,0.0,0.0,0.0,9.82632180847359e-11,3.0636472117640474e-10,9.49247251930809e-12,0.0,0.0,0.0,0.0,0.0,0.0,0.0,0.0,0.0
100.767,100527,100,767000000,base_footprint,-1.9540838331265363e-06,0.0015896501262749156,0.0001839613187669723,0.9999987195826257,0.0,0.0,0.0,0.0,0.0,0.0,0.0,0.0,0.0,-4.898610634472053e-05,-0.00021123519507973407,7.97046913363856e-06,0.0,0.0,0.0,0.0,0.0,0.0,0.0,0.0,0.0,9.968544643280631e-11,3.107573352060034e-10,7.136657371702821e-12,0.0,0.0,0.0,0.0,0.0,0.0,0.0,0.0,0.0
100.768,100528,100,768000000,base_footprint,-1.9540867425080144e-06,0.0015896501262721275,0.0001839631495901289,0.9999987195822888,0.0,0.0,0.0,0.0,0.0,0.0,0.0,0.0,0.0,-4.8986104729959177e-05,-0.00021123519552006207,7.970471056635269e-06,0.0,0.0,0.0,0.0,0.0,0.0,0.0,0.0,0.0,1.0024944513480544e-10,3.123761649546701e-10,8.804252146540613e-12,0.0,0.0,0.0,0.0,0.0,0.0,0.0,0.0,0.0
100.769,100529,100,769000000,base_footprint,-1.954089651877897e-06,0.0015896501262693383,0.00018396498041340685,0.9999987195819522,0.0,0.0,0.0,0.0,0.0,0.0,0.0,0.0,0.0,-4.898610310108282e-05,-0.00021123519595690393,7.97047297439014e-06,0.0,0.0,0.0,0.0,0.0,0.0,0.0,0.0,0.0,9.99687559232407e-11,3.115480423320774e-10,9.550900166738843e-12,0.0,0.0,0.0,0.0,0.0,0.0,0.0,0.0,0.0
100.769,100530,100,770000000,base_footprint,-1.9540925612519848e-06,0.0015896501262665497,0.00018396681123679902,0.9999987195816153,0.0,0.0,0.0,0.0,0.0,0.0,0.0,0.0,0.0,-4.898610150398513e-05,-0.00021123519638865557,7.970474878324743e-06,0.0,0.0,0.0,0.0,0.0,0.0,0.0,0.0,0.0,9.921273529471997e-11,3.0926029841627293e-10,9.194712386472533e-12,0.0,0.0,0.0,0.0,0.0,0.0,0.0,0.0,0.0
100.77,100531,100,771000000,base_footprint,-1.9540954706372656e-06,0.0015896501262637544,0.00018396864206031446,0.9999987195812785,0.0,0.0,0.0,0.0,0.0,0.0,0.0,0.0,0.0,-4.898609992073751e-05,-0.0002112351968358214,7.970476800262607e-06,0.0,0.0,0.0,0.0,0.0,0.0,0.0,0.0,0.0,1.0018988986064095e-10,3.1215658239544485e-10,7.531575907212628e-12,0.0,0.0,0.0,0.0,0.0,0.0,0.0,0.0,0.0
100.77,100532,100,772000000,base_footprint,-1.954098380016105e-06,0.0015896501262609595,0.00018397047288395507,0.9999987195809417,0.0,0.0,0.0,0.0,0.0,0.0,0.0,0.0,0.0,-4.898609830204962e-05,-0.0002112351972691084,7.970478725787864e-06,0.0,0.0,0.0,0.0,0.0,0.0,0.0,0.0,0.0,1.0038043597688087e-10,3.127918229793871e-10,9.176536960399276e-12,0.0,0.0,0.0,0.0,0.0,0.0,0.0,0.0,0.0
100.77,100533,100,773000000,base_footprint,-1.9541012894043477e-06,0.0015896501262581794,0.0001839723037077087,0.9999987195806048,0.0,0.0,0.0,0.0,0.0,0.0,0.0,0.0,0.0,-4.898609671532282e-05,-0.00021123519767339528,7.970480627203452e-06,0.0,0.0,0.0,0.0,0.0,0.0,0.0,0.0,0.0,9.90428753788264e-11,3.088363235249066e-10,7.685481610146183e-12,0.0,0.0,0.0,0.0,0.0,0.0,0.0,0.0,0.0
100.77,100534,100,774000000,base_footprint,-1.9541041987816185e-06,0.001589650126255397,0.00018397413453158728,0.999998719580268,0.0,0.0,0.0,0.0,0.0,0.0,0.0,0.0,0.0,-4.898609508764387e-05,-0.00021123519811180598,7.970482552283557e-06,0.0,0.0,0.0,0.0,0.0,0.0,0.0,0.0,0.0,1.003593812220843e-10,3.127334946198417e-10,8.044759129063803e-12,0.0,0.0,0.0,0.0,0.0,0.0,0.0,0.0,0.0
100.77,365898,1778966439,531840738,imu_link,0.0161356832832098,-0.023720506578683853,0.2027331292629242,0.9788091778755188,0.0024999999441206455,0.0,0.0,0.0,0.0024999999441206455,0.0,0.0,0.0,0.0024999999441206455,0.0,0.0,0.0,0.019999999552965164,0.0,0.0,0.0,0.019999999552965164,0.0,0.0,0.0,0.019999999552965164,0.4920084476470947,0.16519992053508759,9.611522674560547,0.03999999910593033,0.0,0.0,0.0,0.03999999910593033,0.0,0.0,0.0,0.03999999910593033
100.774,100535,100,775000000,base_footprint,-1.9541071081560624e-06,0.0015896501262526056,0.00018397596535557555,0.9999987195799311,0.0,0.0,0.0,0.0,0.0,0.0,0.0,0.0,0.0,-4.89860934764266e-05,-0.00021123519856347628,7.970484446899196e-06,0.0,0.0,0.0,0.0,0.0,0.0,0.0,0.0,0.0,9.873419144773909e-11,3.077716023917354e-10,9.400667850040387e-12,0.0,0.0,0.0,0.0,0.0,0.0,0.0,0.0,0.0
100.775,100536,100,776000000,base_footprint,-1.9541100175326112e-06,0.0015896501262498055,0.00018397779617968773,0.9999987195795943,0.0,0.0,0.0,0.0,0.0,0.0,0.0,0.0,0.0,-4.898609187500018e-05,-0.00021123519901476554,7.970486370054391e-06,0.0,0.0,0.0,0.0,0.0,0.0,0.0,0.0,0.0,1.0027032505388865e-10,3.123816924964049e-10,1.0007873044310978e-11,0.0,0.0,0.0,0.0,0.0,0.0,0.0,0.0,0.0
100.776,100537,100,777000000,base_footprint,-1.9541129269119548e-06,0.0015896501262470113,0.00018397962700391788,0.9999987195792575,0.0,0.0,0.0,0.0,0.0,0.0,0.0,0.0,0.0,-4.898609027492603e-05,-0.00021123519943687537,7.970488281250937e-06,0.0,0.0,0.0,0.0,0.0,0.0,0.0,0.0,0.0,9.958194806547668e-11,3.1044152938042307e-10,5.216442702020284e-12,0.0,0.0,0.0,0.0,0.0,0.0,0.0,0.0,0.0
100.777,100538,100,778000000,base_footprint,-1.954115836293016e-06,0.0015896501262442177,0.00018398145782825968,0.9999987195789206,0.0,0.0,0.0,0.0,0.0,0.0,0.0,0.0,0.0,-4.8986088672813526e-05,-0.0002112351998693068,7.970490179864995e-06,0.0,0.0,0.0,0.0,0.0,0.0,0.0,0.0,0.0,9.89297579228018e-11,3.084058431405186e-10,9.852510181180245e-12,0.0,0.0,0.0,0.0,0.0,0.0,0.0,0.0,0.0
100.778,100539,100,779000000,base_footprint,-1.9541187456723017e-06,0.0015896501262414328,0.00018398328865272887,0.9999987195785838,0.0,0.0,0.0,0.0,0.0,0.0,0.0,0.0,0.0,-4.898608706352108e-05,-0.00021123520028606951,7.9704921099222e-06,0.0,0.0,0.0,0.0,0.0,0.0,0.0,0.0,0.0,1.0060424476614793e-10,3.1351207772872494e-10,8.638705670119443e-12,0.0,0.0,0.0,0.0,0.0,0.0,0.0,0.0,0.0
100.778,365899,1778966439,536840738,imu_link,0.0161356832832098,-0.023720506578683853,0.2027331292629242,0.9788091778755188,0.0024999999441206455,0.0,0.0,0.0,0.0024999999441206455,0.0,0.0,0.0,0.0024999999441206455,0.0,0.0,0.0,0.019999999552965164,0.0,0.0,0.0,0.019999999552965164,0.0,0.0,0.0,0.019999999552965164,0.4920084476470947,0.16519992053508759,9.611522674560547,0.03999999910593033,0.0,0.0,0.0,0.03999999910593033,0.0,0.0,0.0,0.03999999910593033
100.779,100540,100,780000000,base_footprint,-1.9541216550630527e-06,0.0015896501262386508,0.0001839851194773115,0.9999987195782469,0.0,0.0,0.0,0.0,0.0,0.0,0.0,0.0,0.0,-4.898608548092836e-05,-0.00021123520071391873,7.970494012206205e-06,0.0,0.0,0.0,0.0,0.0,0.0,0.0,0.0,0.0,9.910996524907982e-11,3.089706237197291e-10,6.801767195083733e-12,0.0,0.0,0.0,0.0,0.0,0.0,0.0,0.0,0.0
100.78,100541,100,781000000,base_footprint,-1.954124564458059e-06,0.001589650126235861,0.00018398695030200608,0.9999987195779101,0.0,0.0,0.0,0.0,0.0,0.0,0.0,0.0,0.0,-4.8986083883781636e-05,-0.000211235201163595,7.970495911465362e-06,0.0,0.0,0.0,0.0,0.0,0.0,0.0,0.0,0.0,9.897391312528321e-11,3.0850274214040343e-10,7.602604592396234e-12,0.0,0.0,0.0,0.0,0.0,0.0,0.0,0.0,0.0
100.782,100542,100,782000000,base_footprint,-1.9541274738278477e-06,0.0015896501262330689,0.0001839887811268296,0.9999987195775734,0.0,0.0,0.0,0.0,0.0,0.0,0.0,0.0,0.0,-4.8986082227554106e-05,-0.00021123520160216212,7.970497844226815e-06,0.0,0.0,0.0,0.0,0.0,0.0,0.0,0.0,0.0,1.007926617129696e-10,3.1402172518593045e-10,1.2669608513875855e-11,0.0,0.0,0.0,0.0,0.0,0.0,0.0,0.0,0.0
100.783,100543,100,783000000,base_footprint,-1.9541303832035554e-06,0.0015896501262302697,0.00018399061195177355,0.9999987195772364,0.0,0.0,0.0,0.0,0.0,0.0,0.0,0.0,0.0,-4.898608063385357e-05,-0.00021123520204950142,7.970499760642849e-06,0.0,0.0,0.0,0.0,0.0,0.0,0.0,0.0,0.0,9.989758512524929e-11,3.112774854970027e-10,8.404381501130556e-12,0.0,0.0,0.0,0.0,0.0,0.0,0.0,0.0,0.0
100.784,100544,100,784000000,base_footprint,-1.954133292587604e-06,0.0015896501262274692,0.00018399244277683086,0.9999987195768996,0.0,0.0,0.0,0.0,0.0,0.0,0.0,0.0,0.0,-4.898607904493538e-05,-0.0002112352024864549,7.970501662719048e-06,0.0,0.0,0.0,0.0,0.0,0.0,0.0,0.0,0.0,9.911555926704163e-11,3.0894674861856743e-10,8.932922274101783e-12,0.0,0.0,0.0,0.0,0.0,0.0,0.0,0.0,0.0
100.785,100545,100,785000000,base_footprint,-1.9541362019710157e-06,0.0015896501262246763,0.00018399427360200424,0.9999987195765627,0.0,0.0,0.0,0.0,0.0,0.0,0.0,0.0,0.0,-4.8986077438009775e-05,-0.00021123520290497577,7.970503570117413e-06,0.0,0.0,0.0,0.0,0.0,0.0,0.0,0.0,0.0,9.938147802023343e-11,3.0983668828374103e-10,7.346995127521194e-12,0.0,0.0,0.0,0.0,0.0,0.0,0.0,0.0,0.0
100.786,100546,100,786000000,base_footprint,-1.9541391113578614e-06,0.0015896501262218866,0.00018399610442730582,0.9999987195762259,0.0,0.0,0.0,0.0,0.0,0.0,0.0,0.0,0.0,-4.89860758391947e-05,-0.0002112352033320623,7.970505501793627e-06,0.0,0.0,0.0,0.0,0.0,0.0,0.0,0.0,0.0,1.0069092216963646e-10,3.1375828986421106e-10,5.711278368397068e-12,0.0,0.0,0.0,0.0,0.0,0.0,0.0,0.0,0.0
100.786,365900,1778966439,541840738,imu_link,0.015550085343420506,-0.02326091378927231,0.20274358987808228,0.9788277745246887,0.0024999999441206455,0.0,0.0,0.0,0.0024999999441206455,0.0,0.0,0.0,0.0024999999441206455,0.0,0.0,0.0,0.019999999552965164,0.0,0.0,0.0,0.019999999552965164,0.0,0.0,0.0,0.019999999552965164,0.4686649739742279,0.17717091739177704,9.586981773376465,0.03999999910593033,0.0,0.0,0.0,0.03999999910593033,0.0,0.0,0.0,0.03999999910593033
100.787,100547,100,787000000,base_footprint,-1.9541420207425913e-06,0.0015896501262190979,0.00018399793525272204,0.999998719575889,0.0,0.0,0.0,0.0,0.0,0.0,0.0,0.0,0.0,-4.898607422936508e-05,-0.00021123520376432276,7.9705074062755e-06,0.0,0.0,0.0,0.0,0.0,0.0,0.0,0.0,0.0,9.924431438159804e-11,3.0936829640373526e-10,9.002611817565574e-12,0.0,0.0,0.0,0.0,0.0,0.0,0.0,0.0,0.0
100.788,100548,100,788000000,base_footprint,-1.954144930111675e-06,0.0015896501262163093,0.00018399976607825586,0.9999987195755522,0.0,0.0,0.0,0.0,0.0,0.0,0.0,0.0,0.0,-4.8986072592353645e-05,-0.0002112352041976103,7.970509316534448e-06,0.0,0.0,0.0,0.0,0.0,0.0,0.0,0.0,0.0,9.955668020627676e-11,3.1034592956084814e-10,7.674408620952304e-12,0.0,0.0,0.0,0.0,0.0,0.0,0.0,0.0,0.0
100.789,100549,100,789000000,base_footprint,-1.9541478394928703e-06,0.0015896501262135283,0.00018400159690390726,0.9999987195752152,0.0,0.0,0.0,0.0,0.0,0.0,0.0,0.0,0.0,-4.898607101113445e-05,-0.0002112352046159839,7.97051122722712e-06,0.0,0.0,0.0,0.0,0.0,0.0,0.0,0.0,0.0,9.95588423641805e-11,3.1033127334284295e-10,8.726530467051374e-12,0.0,0.0,0.0,0.0,0.0,0.0,0.0,0.0,0.0
100.79,100550,100,790000000,base_footprint,-1.9541507488695203e-06,0.001589650126210737,0.0001840034277296842,0.9999987195748783,0.0,0.0,0.0,0.0,0.0,0.0,0.0,0.0,0.0,-4.898606939623779e-05,-0.00021123520507096153,7.970513153599518e-06,0.0,0.0,0.0,0.0,0.0,0.0,0.0,0.0,0.0,1.0045435347968089e-10,3.129233654003953e-10,1.1453754009462061e-11,0.0,0.0,0.0,0.0,0.0,0.0,0.0,0.0,0.0
100.791,100551,100,791000000,base_footprint,-1.954153658258976e-06,0.0015896501262079481,0.0001840052585555728,0.9999987195745415,0.0,0.0,0.0,0.0,0.0,0.0,0.0,0.0,0.0,-4.898606781635689e-05,-0.0002112352054997381,7.970515052258008e-06,0.0,0.0,0.0,0.0,0.0,0.0,0.0,0.0,0.0,9.8913606804443e-11,3.0837897830751e-10,6.297349845544878e-12,0.0,0.0,0.0,0.0,0.0,0.0,0.0,0.0,0.0
100.792,100552,100,792000000,base_footprint,-1.9541565676379814e-06,0.0015896501262051554,0.0001840070893815833,0.9999987195742046,0.0,0.0,0.0,0.0,0.0,0.0,0.0,0.0,0.0,-4.8986066189727806e-05,-0.0002112352059414536,7.970516971203891e-06,0.0,0.0,0.0,0.0,0.0,0.0,0.0,0.0,0.0,1.0004061644333894e-10,3.117380525512143e-10,1.0770316279288252e-11,0.0,0.0,0.0,0.0,0.0,0.0,0.0,0.0,0.0
100.793,100553,100,793000000,base_footprint,-1.954159477026682e-06,0.0015896501262023662,0.00018400892020771983,0.9999987195738678,0.0,0.0,0.0,0.0,0.0,0.0,0.0,0.0,0.0,-4.898606460346034e-05,-0.00021123520636829384,7.970518898696882e-06,0.0,0.0,0.0,0.0,0.0,0.0,0.0,0.0,0.0,1.0047246826697802e-10,3.1306135388873753e-10,8.616249821272951e-12,0.0,0.0,0.0,0.0,0.0,0.0,0.0,0.0,0.0
100.794,100554,100,794000000,base_footprint,-1.95416238642093e-06,0.0015896501261995779,0.0001840107510339679,0.9999987195735309,0.0,0.0,0.0,0.0,0.0,0.0,0.0,0.0,0.0,-4.898606300893722e-05,-0.00021123520680053603,7.97052079718365e-06,0.0,0.0,0.0,0.0,0.0,0.0,0.0,0.0,0.0,9.891635464045399e-11,3.083734125274687e-10,8.172993256440194e-12,0.0,0.0,0.0,0.0,0.0,0.0,0.0,0.0,0.0
100.795,100555,100,795000000,base_footprint,-1.9541652958005087e-06,0.0015896501261967906,0.0001840125818603271,0.9999987195731941,0.0,0.0,0.0,0.0,0.0,0.0,0.0,0.0,0.0,-4.8986061373915656e-05,-0.0002112352072320809,7.97052269448924e-06,0.0,0.0,0.0,0.0,0.0,0.0,0.0,0.0,0.0,9.885835365351281e-11,3.0824393753324535e-10,8.095318575705929e-12,0.0,0.0,0.0,0.0,0.0,0.0,0.0,0.0,0.0
100.796,100556,100,796000000,base_footprint,-1.9541682051792106e-06,0.0015896501261939984,0.00018401441268681113,0.999998719572857,0.0,0.0,0.0,0.0,0.0,0.0,0.0,0.0,0.0,-4.8986059766569665e-05,-0.00021123520767490545,7.97052461953233e-06,0.0,0.0,0.0,0.0,0.0,0.0,0.0,0.0,0.0,1.0035914974249704e-10,3.126967054796696e-10,8.388169171458884e-12,0.0,0.0,0.0,0.0,0.0,0.0,0.0,0.0,0.0
100.797,100557,100,797000000,base_footprint,-1.9541711145612655e-06,0.0015896501261912068,0.0001840162435134277,0.9999987195725201,0.0,0.0,0.0,0.0,0.0,0.0,0.0,0.0,0.0,-4.898605816754624e-05,-0.00021123520810868563,7.970526559780887e-06,0.0,0.0,0.0,0.0,0.0,0.0,0.0,0.0,0.0,1.0117039597712965e-10,3.151476851743709e-10,9.207781046841278e-12,0.0,0.0,0.0,0.0,0.0,0.0,0.0,0.0,0.0
100.798,100558,100,798000000,base_footprint,-1.9541740239445613e-06,0.0015896501261884217,0.0001840180743401526,0.9999987195721831,0.0,0.0,0.0,0.0,0.0,0.0,0.0,0.0,0.0,-4.898605656444607e-05,-0.0002112352085292411,7.970528451791466e-06,0.0,0.0,0.0,0.0,0.0,0.0,0.0,0.0,0.0,9.855729782653222e-11,3.0733687715364246e-10,8.086718434775649e-12,0.0,0.0,0.0,0.0,0.0,0.0,0.0,0.0,0.0
100.799,100559,100,799000000,base_footprint,-1.9541769333258946e-06,0.0015896501261856379,0.0001840199051670028,0.9999987195718464,0.0,0.0,0.0,0.0,0.0,0.0,0.0,0.0,0.0,-4.8986054954801155e-05,-0.0002112352089614131,7.970530377493224e-06,0.0,0.0,0.0,0.0,0.0,0.0,0.0,0.0,0.0,1.0037883687495033e-10,3.1280702648647904e-10,6.716196887160956e-12,0.0,0.0,0.0,0.0,0.0,0.0,0.0,0.0,0.0
100.8,100560,100,800000000,base_footprint,-1.9541798427087648e-06,0.0015896501261828432,0.00018402173599396722,0.9999987195715094,0.0,0.0,0.0,0.0,0.0,0.0,0.0,0.0,0.0,-4.8986053352294684e-05,-0.0002112352094163678,7.970532281417319e-06,0.0,0.0,0.0,0.0,0.0,0.0,0.0,0.0,0.0,9.923941344777393e-11,3.0926677646527463e-10,1.0139378874074817e-11,0.0,0.0,0.0,0.0,0.0,0.0,0.0,0.0,0.0
100.801,100561,100,801000000,base_footprint,-1.954182752096698e-06,0.0015896501261800447,0.00018402356682104863,0.9999987195711725,0.0,0.0,0.0,0.0,0.0,0.0,0.0,0.0,0.0,-4.898605175678987e-05,-0.00021123520985770106,7.970534190732469e-06,0.0,0.0,0.0,0.0,0.0,0.0,0.0,0.0,0.0,9.951494482040667e-11,3.101299223232125e-10,1.0279581512478357e-11,0.0,0.0,0.0,0.0,0.0,0.0,0.0,0.0,0.0
100.802,100562,100,802000000,base_footprint,-1.9541856614829814e-06,0.0015896501261772466,0.00018402539764825453,0.9999987195708355,0.0,0.0,0.0,0.0,0.0,0.0,0.0,0.0,0.0,-4.898605014779992e-05,-0.00021123521029100284,7.97053611505677e-06,0.0,0.0,0.0,0.0,0.0,0.0,0.0,0.0,0.0,1.0031198360143738e-10,3.1258251658126245e-10,8.564361059792714e-12,0.0,0.0,0.0,0.0,0.0,0.0,0.0,0.0,0.0
100.805,100563,100,803000000,base_footprint,-1.954188570872128e-06,0.0015896501261744465,0.00018402722847557542,0.9999987195704986,0.0,0.0,0.0,0.0,0.0,0.0,0.0,0.0,0.0,-4.898604854787905e-05,-0.00021123521072829085,7.970538020325809e-06,0.0,0.0,0.0,0.0,0.0,0.0,0.0,0.0,0.0,9.928743344075643e-11,3.094806693283383e-10,8.15138471196707e-12,0.0,0.0,0.0,0.0,0.0,0.0,0.0,0.0,0.0
100.805,100565,100,805000000,base_footprint,-1.954194389653636e-06,0.0015896501261688796,0.00018403089013055256,0.9999987195698249,0.0,0.0,0.0,0.0,0.0,0.0,0.0,0.0,0.0,-4.898604531721959e-05,-0.00021123521155817519,7.970541823232461e-06,0.0,0.0,0.0,0.0,0.0,0.0,0.0,0.0,0.0,9.950625725029429e-11,3.1023777141126866e-10,7.609320383988747e-12,0.0,0.0,0.0,0.0,0.0,0.0,0.0,0.0,0.0
100.806,100566,100,806000000,base_footprint,-1.954197299034045e-06,0.001589650126166097,0.00018403272095822494,0.9999987195694879,0.0,0.0,0.0,0.0,0.0,0.0,0.0,0.0,0.0,-4.898604371358503e-05,-0.00021123521199502065,7.970543749010654e-06,0.0,0.0,0.0,0.0,0.0,0.0,0.0,0.0,0.0,1.0040423719901487e-10,3.1280994877191334e-10,1.211748953713324e-11,0.0,0.0,0.0,0.0,0.0,0.0,0.0,0.0,0.0
100.807,100567,100,807000000,base_footprint,-1.954200208415765e-06,0.001589650126163306,0.00018403455178601593,0.999998719569151,0.0,0.0,0.0,0.0,0.0,0.0,0.0,0.0,0.0,-4.898604211054716e-05,-0.00021123521244581974,7.970545661546715e-06,0.0,0.0,0.0,0.0,0.0,0.0,0.0,0.0,0.0,9.969602312156815e-11,3.106631686885403e-10,9.228731437807034e-12,0.0,0.0,0.0,0.0,0.0,0.0,0.0,0.0,0.0
100.808,100568,100,808000000,base_footprint,-1.9542031178092557e-06,0.0015896501261605136,0.00018403638261392988,0.999998719568814,0.0,0.0,0.0,0.0,0.0,0.0,0.0,0.0,0.0,-4.898604052847864e-05,-0.00021123521288238543,7.970547582909758e-06,0.0,0.0,0.0,0.0,0.0,0.0,0.0,0.0,0.0,1.0014894171778978e-10,3.1206154045969807e-10,7.797953904663473e-12,0.0,0.0,0.0,0.0,0.0,0.0,0.0,0.0,0.0
100.809,100569,100,809000000,base_footprint,-1.9542060271917685e-06,0.0015896501261577246,0.00018403821344195912,0.9999987195684771,0.0,0.0,0.0,0.0,0.0,0.0,0.0,0.0,0.0,-4.8986038900715075e-05,-0.00021123521330928445,7.970549488619683e-06,0.0,0.0,0.0,0.0,0.0,0.0,0.0,0.0,0.0,9.930401014500994e-11,3.0959463229249417e-10,7.75115720767978e-12,0.0,0.0,0.0,0.0,0.0,0.0,0.0,0.0,0.0
100.81,100570,100,810000000,base_footprint,-1.954208936572435e-06,0.0015896501261549387,0.0001840400442701175,0.9999987195681401,0.0,0.0,0.0,0.0,0.0,0.0,0.0,0.0,0.0,-4.8986037291376674e-05,-0.00021123521373714912,7.970551422126015e-06,0.0,0.0,0.0,0.0,0.0,0.0,0.0,0.0,0.0,1.0080113460779497e-10,3.1407113035378205e-10,8.70178104649366e-12,0.0,0.0,0.0,0.0,0.0,0.0,0.0,0.0,0.0
100.81,365901,1778966439,550840738,imu_link,0.014516627416014671,-0.02271430380642414,0.20276448130607605,0.9788520336151123,0.0024999999441206455,0.0,0.0,0.0,0.0024999999441206455,0.0,0.0,0.0,0.0024999999441206455,0.0,0.0,0.0,0.019999999552965164,0.0,0.0,0.0,0.019999999552965164,0.0,0.0,0.0,0.019999999552965164,0.46986207365989685,0.166995570063591,9.610923767089844,0.03999999910593033,0.0,0.0,0.0,0.03999999910593033,0.0,0.0,0.0,0.03999999910593033
100.811,100571,100,811000000,base_footprint,-1.9542118459520866e-06,0.0015896501261521462,0.00018404187509839161,0.9999987195678032,0.0,0.0,0.0,0.0,0.0,0.0,0.0,0.0,0.0,-4.898603568374042e-05,-0.0002112352141842293,7.970553328865964e-06,0.0,0.0,0.0,0.0,0.0,0.0,0.0,0.0,0.0,9.938252336241175e-11,3.097307728571547e-10,9.643791228846815e-12,0.0,0.0,0.0,0.0,0.0,0.0,0.0,0.0,0.0
100.812,100572,100,812000000,base_footprint,-1.954214755342653e-06,0.00158965012614935,0.00018404370592678073,0.9999987195674662,0.0,0.0,0.0,0.0,0.0,0.0,0.0,0.0,0.0,-4.898603410004126e-05,-0.00021123521462528734,7.97055523441736e-06,0.0,0.0,0.0,0.0,0.0,0.0,0.0,0.0,0.0,9.931307703870232e-11,3.095019396086445e-10,1.1210367840096939e-11,0.0,0.0,0.0,0.0,0.0,0.0,0.0,0.0,0.0
100.813,100573,100,813000000,base_footprint,-1.954217664730405e-06,0.001589650126146556,0.00018404553675529863,0.9999987195671293,0.0,0.0,0.0,0.0,0.0,0.0,0.0,0.0,0.0,-4.898603248855041e-05,-0.00021123521505481108,7.970557167120885e-06,0.0,0.0,0.0,0.0,0.0,0.0,0.0,0.0,0.0,1.0074746273876254e-10,3.1394421809027404e-10,4.7437405019171846e-12,0.0,0.0,0.0,0.0,0.0,0.0,0.0,0.0,0.0
100.813,100574,100,814000000,base_footprint,-1.9542205741145364e-06,0.0015896501261437675,0.0001840473675839233,0.9999987195667923,0.0,0.0,0.0,0.0,0.0,0.0,0.0,0.0,0.0,-4.898603087581662e-05,-0.00021123521547766131,7.970559055841163e-06,0.0,0.0,0.0,0.0,0.0,0.0,0.0,0.0,0.0,9.838580895634386e-11,3.0681844201460465e-10,8.674357591158977e-12,0.0,0.0,0.0,0.0,0.0,0.0,0.0,0.0,0.0
100.813,365902,1778966439,555840738,imu_link,0.014516627416014671,-0.02271430380642414,0.20276448130607605,0.9788520336151123,0.0024999999441206455,0.0,0.0,0.0,0.0024999999441206455,0.0,0.0,0.0,0.0024999999441206455,0.0,0.0,0.0,0.019999999552965164,0.0,0.0,0.0,0.019999999552965164,0.0,0.0,0.0,0.019999999552965164,0.46986207365989685,0.166995570063591,9.610923767089844,0.03999999910593033,0.0,0.0,0.0,0.03999999910593033,0.0,0.0,0.0,0.03999999910593033
100.814,100575,100,815000000,base_footprint,-1.9542234835011843e-06,0.0015896501261409748,0.00018404919841266205,0.9999987195664554,0.0,0.0,0.0,0.0,0.0,0.0,0.0,0.0,0.0,-4.898602927530119e-05,-0.00021123521592003556,7.970560959371573e-06,0.0,0.0,0.0,0.0,0.0,0.0,0.0,0.0,0.0,9.919982846942203e-11,3.092003861355456e-10,8.64934964539597e-12,0.0,0.0,0.0,0.0,0.0,0.0,0.0,0.0,0.0
100.815,100576,100,816000000,base_footprint,-1.9542263928846297e-06,0.001589650126138186,0.00018405102924152385,0.9999987195661184,0.0,0.0,0.0,0.0,0.0,0.0,0.0,0.0,0.0,-4.8986027663178024e-05,-0.00021123521634578712,7.970562880677088e-06,0.0,0.0,0.0,0.0,0.0,0.0,0.0,0.0,0.0,1.0013991308874516e-10,3.120980679060828e-10,7.78532429196346e-12,0.0,0.0,0.0,0.0,0.0,0.0,0.0,0.0,0.0
100.817,100577,100,817000000,base_footprint,-1.9542293022714085e-06,0.0015896501261353953,0.00018405286007051275,0.9999987195657815,0.0,0.0,0.0,0.0,0.0,0.0,0.0,0.0,0.0,-4.8986026064159553e-05,-0.0002112352167835035,7.970564810326167e-06,0.0,0.0,0.0,0.0,0.0,0.0,0.0,0.0,0.0,1.0060808907912173e-10,3.1343018567464506e-10,1.0669489148822346e-11,0.0,0.0,0.0,0.0,0.0,0.0,0.0,0.0,0.0
100.818,100578,100,818000000,base_footprint,-1.954232211665014e-06,0.0015896501261326009,0.0001840546908996123,0.9999987195654444,0.0,0.0,0.0,0.0,0.0,0.0,0.0,0.0,0.0,-4.898602447224976e-05,-0.00021123521722442412,7.970566707021957e-06,0.0,0.0,0.0,0.0,0.0,0.0,0.0,0.0,0.0,9.882251324350403e-11,3.0807924972451236e-10,6.426295500771041e-12,0.0,0.0,0.0,0.0,0.0,0.0,0.0,0.0,0.0
100.819,100579,100,819000000,base_footprint,-1.9542351210504638e-06,0.0015896501261298112,0.00018405652172883552,0.9999987195651076,0.0,0.0,0.0,0.0,0.0,0.0,0.0,0.0,0.0,-4.8986022850239016e-05,-0.00021123521764947743,7.970568629442325e-06,0.0,0.0,0.0,0.0,0.0,0.0,0.0,0.0,0.0,1.0020288593466179e-10,3.1229395287555364e-10,8.478555299592493e-12,0.0,0.0,0.0,0.0,0.0,0.0,0.0,0.0,0.0
100.82,100580,100,820000000,base_footprint,-1.9542380304357666e-06,0.0015896501261270185,0.00018405835255817785,0.9999987195647706,0.0,0.0,0.0,0.0,0.0,0.0,0.0,0.0,0.0,-4.898602124426724e-05,-0.00021123521808882106,7.970570542987912e-06,0.0,0.0,0.0,0.0,0.0,0.0,0.0,0.0,0.0,9.973839853210619e-11,3.1083110203379465e-10,8.886176029973097e-12,0.0,0.0,0.0,0.0,0.0,0.0,0.0,0.0,0.0
100.821,100581,100,821000000,base_footprint,-1.954240939834009e-06,0.0015896501261242308,0.00018406018338764038,0.9999987195644335,0.0,0.0,0.0,0.0,0.0,0.0,0.0,0.0,0.0,-4.8986019664607e-05,-0.0002112352185122309,7.970572458869092e-06,0.0,0.0,0.0,0.0,0.0,0.0,0.0,0.0,0.0,9.983792244255918e-11,3.111697195721265e-10,7.183875691184599e-12,0.0,0.0,0.0,0.0,0.0,0.0,0.0,0.0,0.0
100.822,100582,100,822000000,base_footprint,-1.954243849234255e-06,0.0015896501261214338,0.00018406201421722603,0.9999987195640965,0.0,0.0,0.0,0.0,0.0,0.0,0.0,0.0,0.0,-4.8986018062849944e-05,-0.0002112352189650773,7.97057438047754e-06,0.0,0.0,0.0,0.0,0.0,0.0,0.0,0.0,0.0,1.0019101997224355e-10,3.121313696923651e-10,1.0715192157694382e-11,0.0,0.0,0.0,0.0,0.0,0.0,0.0,0.0,0.0
100.823,100583,100,823000000,base_footprint,-1.9542467586220566e-06,0.0015896501261186435,0.00018406384504693013,0.9999987195637595,0.0,0.0,0.0,0.0,0.0,0.0,0.0,0.0,0.0,-4.898601643227124e-05,-0.00021123521938552572,7.970576292421315e-06,0.0,0.0,0.0,0.0,0.0,0.0,0.0,0.0,0.0,9.96399433463862e-11,3.1060910242232144e-10,9.748123410121396e-12,0.0,0.0,0.0,0.0,0.0,0.0,0.0,0.0,0.0
100.824,100584,100,824000000,base_footprint,-1.954249668011628e-06,0.0015896501261158538,0.0001840656758767387,0.9999987195634226,0.0,0.0,0.0,0.0,0.0,0.0,0.0,0.0,0.0,-4.898601483034397e-05,-0.00021123521981803722,7.970578176682226e-06,0.0,0.0,0.0,0.0,0.0,0.0,0.0,0.0,0.0,9.814299433932677e-11,3.0607969310082457e-10,5.5038796865187194e-12,0.0,0.0,0.0,0.0,0.0,0.0,0.0,0.0,0.0
100.825,100585,100,825000000,base_footprint,-1.954252577397101e-06,0.0015896501261130622,0.00018406750670666678,0.9999987195630856,0.0,0.0,0.0,0.0,0.0,0.0,0.0,0.0,0.0,-4.8986013216419334e-05,-0.0002112352202561943,7.970580090861803e-06,0.0,0.0,0.0,0.0,0.0,0.0,0.0,0.0,0.0,9.977239341182356e-11,3.1094633683798494e-10,8.964414969069025e-12,0.0,0.0,0.0,0.0,0.0,0.0,0.0,0.0,0.0
100.826,100586,100,826000000,base_footprint,-1.9542554867801323e-06,0.0015896501261102702,0.00018406933753671698,0.9999987195627484,0.0,0.0,0.0,0.0,0.0,0.0,0.0,0.0,0.0,-4.8986011605949866e-05,-0.00021123522068981852,7.970582010454715e-06,0.0,0.0,0.0,0.0,0.0,0.0,0.0,0.0,0.0,1.000559089151624e-10,3.1181809188869755e-10,8.00290846060407e-12,0.0,0.0,0.0,0.0,0.0,0.0,0.0,0.0,0.0
100.827,100587,100,827000000,base_footprint,-1.9542583961739974e-06,0.0015896501261074847,0.0001840711683668905,0.9999987195624115,0.0,0.0,0.0,0.0,0.0,0.0,0.0,0.0,0.0,-4.898601002194087e-05,-0.00021123522111173075,7.970583932420355e-06,0.0,0.0,0.0,0.0,0.0,0.0,0.0,0.0,0.0,1.0016489638085423e-10,3.121620822802211e-10,7.136075203023697e-12,0.0,0.0,0.0,0.0,0.0,0.0,0.0,0.0,0.0
100.828,100588,100,828000000,base_footprint,-1.9542613055664e-06,0.0015896501261046959,0.00018407299919718178,0.9999987195620745,0.0,0.0,0.0,0.0,0.0,0.0,0.0,0.0,0.0,-4.89860084133578e-05,-0.00021123522155182432,7.970585843239399e-06,0.0,0.0,0.0,0.0,0.0,0.0,0.0,0.0,0.0,9.959372445846648e-11,3.1039320644223516e-10,9.16693271590576e-12,0.0,0.0,0.0,0.0,0.0,0.0,0.0,0.0,0.0
100.829,100589,100,829000000,base_footprint,-1.954264214948312e-06,0.0015896501261019082,0.00018407483002759554,0.9999987195617374,0.0,0.0,0.0,0.0,0.0,0.0,0.0,0.0,0.0,-4.898600678661265e-05,-0.00021123522198287083,7.970587763509324e-06,0.0,0.0,0.0,0.0,0.0,0.0,0.0,0.0,0.0,1.0009825690012807e-10,3.1195275492600674e-10,9.8730517358391e-12,0.0,0.0,0.0,0.0,0.0,0.0,0.0,0.0,0.0
100.83,100590,100,830000000,base_footprint,-1.9542671243425827e-06,0.0015896501260991174,0.00018407666085813287,0.9999987195614005,0.0,0.0,0.0,0.0,0.0,0.0,0.0,0.0,0.0,-4.898600520573605e-05,-0.00021123522242444742,7.970589685823395e-06,0.0,0.0,0.0,0.0,0.0,0.0,0.0,0.0,0.0,1.0020324305178637e-10,3.1221387693287717e-10,7.291821445938098e-12,0.0,0.0,0.0,0.0,0.0,0.0,0.0,0.0,0.0
100.831,100591,100,831000000,base_footprint,-1.954270033729439e-06,0.001589650126096326,0.0001840784916887818,0.9999987195610635,0.0,0.0,0.0,0.0,0.0,0.0,0.0,0.0,0.0,-4.898600358525463e-05,-0.00021123522285865549,7.970591584337161e-06,0.0,0.0,0.0,0.0,0.0,0.0,0.0,0.0,0.0,9.892646266240533e-11,3.0841740089237755e-10,8.95382746924075e-12,0.0,0.0,0.0,0.0,0.0,0.0,0.0,0.0,0.0
100.832,100592,100,832000000,base_footprint,-1.9542729431127124e-06,0.0015896501260935386,0.00018408032251955293,0.9999987195607264,0.0,0.0,0.0,0.0,0.0,0.0,0.0,0.0,0.0,-4.8986001972402244e-05,-0.00021123522328474,7.970593503946152e-06,0.0,0.0,0.0,0.0,0.0,0.0,0.0,0.0,0.0,1.0004986417700801e-10,3.1182449024552045e-10,8.162238390064028e-12,0.0,0.0,0.0,0.0,0.0,0.0,0.0,0.0,0.0
100.833,100593,100,833000000,base_footprint,-1.9542758525038967e-06,0.0015896501260907485,0.00018408215335043575,0.9999987195603893,0.0,0.0,0.0,0.0,0.0,0.0,0.0,0.0,0.0,-4.898600038276765e-05,-0.0002112352237237931,7.970595402746254e-06,0.0,0.0,0.0,0.0,0.0,0.0,0.0,0.0,0.0,9.894298206502188e-11,3.08416882056921e-10,9.445910349928139e-12,0.0,0.0,0.0,0.0,0.0,0.0,0.0,0.0,0.0
100.834,100594,100,834000000,base_footprint,-1.954278761903027e-06,0.0015896501260879551,0.00018408398418143506,0.9999987195600525,0.0,0.0,0.0,0.0,0.0,0.0,0.0,0.0,0.0,-4.8985998792972075e-05,-0.0002112352241648349,7.970597311066265e-06,0.0,0.0,0.0,0.0,0.0,0.0,0.0,0.0,0.0,9.945659015461552e-11,3.099600102396507e-10,9.230335993015176e-12,0.0,0.0,0.0,0.0,0.0,0.0,0.0,0.0,0.0
100.835,100595,100,835000000,base_footprint,-1.9542816713014207e-06,0.0015896501260851588,0.00018408581501255507,0.9999987195597154,0.0,0.0,0.0,0.0,0.0,0.0,0.0,0.0,0.0,-4.898599718581633e-05,-0.00021123522460399585,7.970599227871877e-06,0.0,0.0,0.0,0.0,0.0,0.0,0.0,0.0,0.0,9.990898442639044e-11,3.1136132824648306e-10,7.410031409111981e-12,0.0,0.0,0.0,0.0,0.0,0.0,0.0,0.0,0.0
100.836,100596,100,836000000,base_footprint,-1.954284580683921e-06,0.0015896501260823624,0.0001840876458438024,0.9999987195593784,0.0,0.0,0.0,0.0,0.0,0.0,0.0,0.0,0.0,-4.898599554822322e-05,-0.00021123522503788329,7.970601157579788e-06,0.0,0.0,0.0,0.0,0.0,0.0,0.0,0.0,0.0,1.0061831334495587e-10,3.134984714792903e-10,1.2053826806902209e-11,0.0,0.0,0.0,0.0,0.0,0.0,0.0,0.0,0.0
100.837,100597,100,837000000,base_footprint,-1.9542874900779205e-06,0.0015896501260795634,0.00018408947667517215,0.9999987195590413,0.0,0.0,0.0,0.0,0.0,0.0,0.0,0.0,0.0,-4.898599396566494e-05,-0.00021123522547676998,7.970603077927623e-06,0.0,0.0,0.0,0.0,0.0,0.0,0.0,0.0,0.0,1.0009829001524448e-10,3.118977228276039e-10,8.304352454721995e-12,0.0,0.0,0.0,0.0,0.0,0.0,0.0,0.0,0.0
100.838,100598,100,838000000,base_footprint,-1.9542903994782095e-06,0.001589650126076766,0.00018409130750665067,0.9999987195587042,0.0,0.0,0.0,0.0,0.0,0.0,0.0,0.0,0.0,-4.8985992372693595e-05,-0.00021123522590756302,7.970604970895787e-06,0.0,0.0,0.0,0.0,0.0,0.0,0.0,0.0,0.0,9.861724708668175e-11,3.0747681559391954e-10,8.153775045241408e-12,0.0,0.0,0.0,0.0,0.0,0.0,0.0,0.0,0.0
100.838,365903,1778966439,613840738,imu_link,0.00881695095449686,-0.024264726787805557,0.20291945338249207,0.9788506627082825,0.0024999999441206455,0.0,0.0,0.0,0.0024999999441206455,0.0,0.0,0.0,0.0024999999441206455,0.0,0.0,0.0,0.019999999552965164,0.0,0.0,0.0,0.019999999552965164,0.0,0.0,0.0,0.019999999552965164,0.48482584953308105,0.166995570063591,9.59296703338623,0.03999999910593033,0.0,0.0,0.0,0.03999999910593033,0.0,0.0,0.0,0.03999999910593033
100.839,100599,100,839000000,base_footprint,-1.9542933088708743e-06,0.0015896501260739652,0.00018409313833824461,0.9999987195583672,0.0,0.0,0.0,0.0,0.0,0.0,0.0,0.0,0.0,-4.898599075170471e-05,-0.00021123522634784267,7.97060687682339e-06,0.0,0.0,0.0,0.0,0.0,0.0,0.0,0.0,0.0,9.932383393815356e-11,3.096198844248185e-10,6.591106969381117e-12,0.0,0.0,0.0,0.0,0.0,0.0,0.0,0.0,0.0
100.84,100600,100,840000000,base_footprint,-1.9542962182652565e-06,0.00158965012607118,0.00018409496916996758,0.9999987195580301,0.0,0.0,0.0,0.0,0.0,0.0,0.0,0.0,0.0,-4.898598914945287e-05,-0.000211235226750765,7.970608810125562e-06,0.0,0.0,0.0,0.0,0.0,0.0,0.0,0.0,0.0,1.0075352748172664e-10,3.140271783781819e-10,5.458721813807911e-12,0.0,0.0,0.0,0.0,0.0,0.0,0.0,0.0,0.0
100.84,100601,100,841000000,base_footprint,-1.9542991276603392e-06,0.0015896501260683922,0.0001840968000017997,0.999998719557693,0.0,0.0,0.0,0.0,0.0,0.0,0.0,0.0,0.0,-4.898598754528743e-05,-0.00021123522718948876,7.970610703749063e-06,0.0,0.0,0.0,0.0,0.0,0.0,0.0,0.0,0.0,9.866505692650283e-11,3.075999190025949e-10,8.926025562842784e-12,0.0,0.0,0.0,0.0,0.0,0.0,0.0,0.0,0.0
100.842,100602,100,842000000,base_footprint,-1.95430203704277e-06,0.0015896501260656108,0.00018409863083375917,0.999998719557356,0.0,0.0,0.0,0.0,0.0,0.0,0.0,0.0,0.0,-4.8985985914210975e-05,-0.0002112352276107735,7.970612633563122e-06,0.0,0.0,0.0,0.0,0.0,0.0,0.0,0.0,0.0,1.0059911678747169e-10,3.1350601815342665e-10,8.68219172141241e-12,0.0,0.0,0.0,0.0,0.0,0.0,0.0,0.0,0.0
100.843,100603,100,843000000,base_footprint,-1.954304946438378e-06,0.0015896501260628262,0.00018410046166583517,0.9999987195570189,0.0,0.0,0.0,0.0,0.0,0.0,0.0,0.0,0.0,-4.8985984335112564e-05,-0.00021123522805142645,7.970614542128142e-06,0.0,0.0,0.0,0.0,0.0,0.0,0.0,0.0,0.0,9.946263271431058e-11,3.099831102534148e-10,7.555839242555733e-12,0.0,0.0,0.0,0.0,0.0,0.0,0.0,0.0,0.0
100.845,100604,100,844000000,base_footprint,-1.9543078558375435e-06,0.0015896501260600306,0.00018410229249802952,0.9999987195566821,0.0,0.0,0.0,0.0,0.0,0.0,0.0,0.0,0.0,-4.8985982736504206e-05,-0.00021123522850791584,7.970616454067675e-06,0.0,0.0,0.0,0.0,0.0,0.0,0.0,0.0,0.0,9.967596127510533e-11,3.1055980945539307e-10,1.1513702191598073e-11,0.0,0.0,0.0,0.0,0.0,0.0,0.0,0.0,0.0
100.845,100605,100,845000000,base_footprint,-1.9543107652245265e-06,0.0015896501260572343,0.0001841041233303492,0.999998719556345,0.0,0.0,0.0,0.0,0.0,0.0,0.0,0.0,0.0,-4.898598110632452e-05,-0.0002112352289422842,7.970618379961369e-06,0.0,0.0,0.0,0.0,0.0,0.0,0.0,0.0,0.0,1.0040547732261076e-10,3.1286908819312203e-10,9.956015587683936e-12,0.0,0.0,0.0,0.0,0.0,0.0,0.0,0.0,0.0
100.846,100606,100,846000000,base_footprint,-1.954313674612256e-06,0.0015896501260544349,0.00018410595416278844,0.9999987195560077,0.0,0.0,0.0,0.0,0.0,0.0,0.0,0.0,0.0,-4.898597950223347e-05,-0.0002112352293813374,7.970620294537168e-06,0.0,0.0,0.0,0.0,0.0,0.0,0.0,0.0,0.0,9.979421747348177e-11,3.109952745544542e-10,9.25725753747565e-12,0.0,0.0,0.0,0.0,0.0,0.0,0.0,0.0,0.0
100.847,100607,100,847000000,base_footprint,-1.954316584014605e-06,0.0015896501260516359,0.0001841077849953364,0.9999987195556707,0.0,0.0,0.0,0.0,0.0,0.0,0.0,0.0,0.0,-4.898597792600652e-05,-0.00021123522981538723,7.970622187409532e-06,0.0,0.0,0.0,0.0,0.0,0.0,0.0,0.0,0.0,9.860887412411838e-11,3.0743593163127765e-10,7.080280386640984e-12,0.0,0.0,0.0,0.0,0.0,0.0,0.0,0.0,0.0
100.847,365904,1778966439,616840738,imu_link,0.009502186439931393,-0.02419770509004593,0.20290163159370422,0.9788495302200317,0.0024999999441206455,0.0,0.0,0.0,0.0024999999441206455,0.0,0.0,0.0,0.0024999999441206455,0.0,0.0,0.0,0.019999999552965164,0.0,0.0,0.0,0.019999999552965164,0.0,0.0,0.0,0.019999999552965164,0.5069721937179565,0.1825578808784485,9.678560256958008,0.03999999910593033,0.0,0.0,0.0,0.03999999910593033,0.0,0.0,0.0,0.03999999910593033
100.848,100608,100,848000000,base_footprint,-1.9543194934131814e-06,0.0015896501260488553,0.0001841096158280022,0.9999987195553336,0.0,0.0,0.0,0.0,0.0,0.0,0.0,0.0,0.0,-4.898597631272788e-05,-0.00021123523021213656,7.970624098303307e-06,0.0,0.0,0.0,0.0,0.0,0.0,0.0,0.0,0.0,9.954477900067994e-11,3.104129524434909e-10,6.202491750721213e-12,0.0,0.0,0.0,0.0,0.0,0.0,0.0,0.0,0.0
100.849,100609,100,849000000,base_footprint,-1.9543224027979205e-06,0.00158965012604607,0.00018411144666079436,0.9999987195549965,0.0,0.0,0.0,0.0,0.0,0.0,0.0,0.0,0.0,-4.8985974679320536e-05,-0.00021123523065543236,7.970626025941045e-06,0.0,0.0,0.0,0.0,0.0,0.0,0.0,0.0,0.0,1.0049946661386994e-10,3.131567233747805e-10,7.04132463276166e-12,0.0,0.0,0.0,0.0,0.0,0.0,0.0,0.0,0.0
100.85,100610,100,850000000,base_footprint,-1.9543253121894758e-06,0.0015896501260432877,0.00018411327749369555,0.9999987195546595,0.0,0.0,0.0,0.0,0.0,0.0,0.0,0.0,0.0,-4.8985973087505626e-05,-0.00021123523108356636,7.970627919498237e-06,0.0,0.0,0.0,0.0,0.0,0.0,0.0,0.0,0.0,9.865130998814372e-11,3.0757035505683427e-10,9.738791425279522e-12,0.0,0.0,0.0,0.0,0.0,0.0,0.0,0.0,0.0
100.851,100611,100,851000000,base_footprint,-1.9543282215858248e-06,0.001589650126040499,0.0001841151083267185,0.9999987195543224,0.0,0.0,0.0,0.0,0.0,0.0,0.0,0.0,0.0,-4.898597149138648e-05,-0.00021123523153019705,7.970629838406292e-06,0.0,0.0,0.0,0.0,0.0,0.0,0.0,0.0,0.0,1.000332534929658e-10,3.1168542344987664e-10,9.224279927998772e-12,0.0,0.0,0.0,0.0,0.0,0.0,0.0,0.0,0.0
100.852,100612,100,852000000,base_footprint,-1.9543311309739055e-06,0.0015896501260377045,0.00018411693915986767,0.9999987195539853,0.0,0.0,0.0,0.0,0.0,0.0,0.0,0.0,0.0,-4.898596986904517e-05,-0.0002112352319752747,7.970631766041135e-06,0.0,0.0,0.0,0.0,0.0,0.0,0.0,0.0,0.0,1.0050658447055799e-10,3.131392140711467e-10,9.275318713975541e-12,0.0,0.0,0.0,0.0,0.0,0.0,0.0,0.0,0.0
100.853,100613,100,853000000,base_footprint,-1.9543340403681687e-06,0.0015896501260349197,0.0001841187699931405,0.9999987195536483,0.0,0.0,0.0,0.0,0.0,0.0,0.0,0.0,0.0,-4.898596827576913e-05,-0.00021123523239014502,7.97063368867496e-06,0.0,0.0,0.0,0.0,0.0,0.0,0.0,0.0,0.0,1.0019453356647364e-10,3.122846558339062e-10,6.980511730992821e-12,0.0,0.0,0.0,0.0,0.0,0.0,0.0,0.0,0.0
100.853,365905,1778966439,621840738,imu_link,0.009502186439931393,-0.02419770509004593,0.20290163159370422,0.9788495302200317,0.0024999999441206455,0.0,0.0,0.0,0.0024999999441206455,0.0,0.0,0.0,0.0024999999441206455,0.0,0.0,0.0,0.019999999552965164,0.0,0.0,0.0,0.019999999552965164,0.0,0.0,0.0,0.019999999552965164,0.5069721937179565,0.1825578808784485,9.678560256958008,0.03999999910593033,0.0,0.0,0.0,0.03999999910593033,0.0,0.0,0.0,0.03999999910593033
100.854,100614,100,854000000,base_footprint,-1.9543369497618064e-06,0.0015896501260321304,0.00018412060082652703,0.9999987195533112,0.0,0.0,0.0,0.0,0.0,0.0,0.0,0.0,0.0,-4.898596666892196e-05,-0.00021123523283242854,7.970635591372683e-06,0.0,0.0,0.0,0.0,0.0,0.0,0.0,0.0,0.0,9.91580256691724e-11,3.0907462137897765e-10,9.126554670207961e-12,0.0,0.0,0.0,0.0,0.0,0.0,0.0,0.0,0.0
100.855,100615,100,855000000,base_footprint,-1.9543398591571106e-06,0.0015896501260293347,0.00018412243166003183,0.999998719552974,0.0,0.0,0.0,0.0,0.0,0.0,0.0,0.0,0.0,-4.898596506658935e-05,-0.00021123523327915895,7.970637503277427e-06,0.0,0.0,0.0,0.0,0.0,0.0,0.0,0.0,0.0,9.965843145912507e-11,3.1056001886985916e-10,9.567469622107533e-12,0.0,0.0,0.0,0.0,0.0,0.0,0.0,0.0,0.0
100.856,100616,100,856000000,base_footprint,-1.954342768554888e-06,0.0015896501260265396,0.0001841242624936582,0.9999987195526369,0.0,0.0,0.0,0.0,0.0,0.0,0.0,0.0,0.0,-4.898596346584669e-05,-0.00021123523371173203,7.970639421848044e-06,0.0,0.0,0.0,0.0,0.0,0.0,0.0,0.0,0.0,1.0000345586755498e-10,3.116375891860388e-10,9.68500048188658e-12,0.0,0.0,0.0,0.0,0.0,0.0,0.0,0.0,0.0
100.857,100617,100,857000000,base_footprint,-1.954345677959107e-06,0.0015896501260237478,0.00018412609332739215,0.9999987195522998,0.0,0.0,0.0,0.0,0.0,0.0,0.0,0.0,0.0,-4.898596187316808e-05,-0.0002112352341392189,7.970641312194427e-06,0.0,0.0,0.0,0.0,0.0,0.0,0.0,0.0,0.0,9.846647152126242e-11,3.0705158961839236e-10,6.244180524849227e-12,0.0,0.0,0.0,0.0,0.0,0.0,0.0,0.0,0.0
100.858,100618,100,858000000,base_footprint,-1.9543485873543146e-06,0.0015896501260209586,0.00018412792416125275,0.9999987195519627,0.0,0.0,0.0,0.0,0.0,0.0,0.0,0.0,0.0,-4.898596024937973e-05,-0.00021123523456778405,7.970643240682014e-06,0.0,0.0,0.0,0.0,0.0,0.0,0.0,0.0,0.0,1.0053208087479012e-10,3.1327983902424083e-10,8.111841530685843e-12,0.0,0.0,0.0,0.0,0.0,0.0,0.0,0.0,0.0
100.859,100619,100,859000000,base_footprint,-1.9543514967343387e-06,0.0015896501260181724,0.00018412975499523706,0.9999987195516257,0.0,0.0,0.0,0.0,0.0,0.0,0.0,0.0,0.0,-4.8985958613338414e-05,-0.00021123523499574665,7.970645163086273e-06,0.0,0.0,0.0,0.0,0.0,0.0,0.0,0.0,0.0,1.0020459071766295e-10,3.1231246071828743e-10,7.55065763733901e-12,0.0,0.0,0.0,0.0,0.0,0.0,0.0,0.0,0.0
100.859,365906,1778966439,626840738,imu_link,0.01021533738821745,-0.02398626133799553,0.20288236439228058,0.9788515567779541,0.0024999999441206455,0.0,0.0,0.0,0.0024999999441206455,0.0,0.0,0.0,0.0024999999441206455,0.0,0.0,0.0,0.019999999552965164,0.0,0.0,0.0,0.019999999552965164,0.0,0.0,0.0,0.019999999552965164,0.4818330705165863,0.1843535304069519,9.55705451965332,0.03999999910593033,0.0,0.0,0.0,0.03999999910593033,0.0,0.0,0.0,0.03999999910593033
100.86,100620,100,860000000,base_footprint,-1.9543544061329324e-06,0.001589650126015385,0.00018413158582933372,0.9999987195512886,0.0,0.0,0.0,0.0,0.0,0.0,0.0,0.0,0.0,-4.898595704504108e-05,-0.00021123523543205712,7.9706470634059e-06,0.0,0.0,0.0,0.0,0.0,0.0,0.0,0.0,0.0,9.901573374307363e-11,3.0863055409379643e-10,8.606541927624453e-12,0.0,0.0,0.0,0.0,0.0,0.0,0.0,0.0,0.0
100.861,100621,100,861000000,base_footprint,-1.9543573155314087e-06,0.0015896501260125912,0.00018413341666355436,0.9999987195509513,0.0,0.0,0.0,0.0,0.0,0.0,0.0,0.0,0.0,-4.898595543900142e-05,-0.00021123523587763743,7.970648986833696e-06,0.0,0.0,0.0,0.0,0.0,0.0,0.0,0.0,0.0,1.0028054683670032e-10,3.12433022700586e-10,1.0308470459333399e-11,0.0,0.0,0.0,0.0,0.0,0.0,0.0,0.0,0.0
100.862,100622,100,862000000,base_footprint,-1.954360224929925e-06,0.0015896501260098009,0.0001841352474978948,0.9999987195506144,0.0,0.0,0.0,0.0,0.0,0.0,0.0,0.0,0.0,-4.898595383344089e-05,-0.00021123523630638678,7.970650901502783e-06,0.0,0.0,0.0,0.0,0.0,0.0,0.0,0.0,0.0,9.97863446973182e-11,3.1101248341071266e-10,8.336505531276692e-12,0.0,0.0,0.0,0.0,0.0,0.0,0.0,0.0,0.0
100.863,100623,100,863000000,base_footprint,-1.9543631343301855e-06,0.0015896501260070093,0.00018413707833235388,0.9999987195502772,0.0,0.0,0.0,0.0,0.0,0.0,0.0,0.0,0.0,-4.898595223130663e-05,-0.000211235236741784,7.970652814223214e-06,0.0,0.0,0.0,0.0,0.0,0.0,0.0,0.0,0.0,9.968825295120942e-11,3.1069171523351544e-10,8.661721985170887e-12,0.0,0.0,0.0,0.0,0.0,0.0,0.0,0.0,0.0
100.864,100624,100,864000000,base_footprint,-1.9543660437224298e-06,0.0015896501260042177,0.00018413890916693383,0.99999871954994,0.0,0.0,0.0,0.0,0.0,0.0,0.0,0.0,0.0,-4.8985950609510894e-05,-0.0002112352371758072,7.970654731132825e-06,0.0,0.0,0.0,0.0,0.0,0.0,0.0,0.0,0.0,9.991940053181769e-11,3.114005938175887e-10,9.84104906664178e-12,0.0,0.0,0.0,0.0,0.0,0.0,0.0,0.0,0.0
100.864,365907,1778966439,631840738,imu_link,0.010934134013950825,-0.02380087785422802,0.20286299288272858,0.978852391242981,0.0024999999441206455,0.0,0.0,0.0,0.0024999999441206455,0.0,0.0,0.0,0.0024999999441206455,0.0,0.0,0.0,0.019999999552965164,0.0,0.0,0.0,0.019999999552965164,0.0,0.0,0.0,0.019999999552965164,0.4902127981185913,0.14844051003456116,9.625887870788574,0.03999999910593033,0.0,0.0,0.0,0.03999999910593033,0.0,0.0,0.0,0.03999999910593033
100.865,100625,100,865000000,base_footprint,-1.954368953121701e-06,0.0015896501260014146,0.00018414074000163292,0.9999987195496028,0.0,0.0,0.0,0.0,0.0,0.0,0.0,0.0,0.0,-4.898594901797841e-05,-0.00021123523763262074,7.970656644884583e-06,0.0,0.0,0.0,0.0,0.0,0.0,0.0,0.0,0.0,9.976636260511068e-11,3.108426571821525e-10,9.54302865407946e-12,0.0,0.0,0.0,0.0,0.0,0.0,0.0,0.0,0.0
100.866,100626,100,866000000,base_footprint,-1.9543718625173924e-06,0.0015896501259986128,0.00018414257083644616,0.9999987195492657,0.0,0.0,0.0,0.0,0.0,0.0,0.0,0.0,0.0,-4.898594740509484e-05,-0.0002112352380636123,7.970658548368366e-06,0.0,0.0,0.0,0.0,0.0,0.0,0.0,0.0,0.0,9.91850159688794e-11,3.0921134587061267e-10,7.633751435571625e-12,0.0,0.0,0.0,0.0,0.0,0.0,0.0,0.0,0.0
100.867,100627,100,867000000,base_footprint,-1.9543747719173154e-06,0.001589650125995821,0.00018414440167138053,0.9999987195489285,0.0,0.0,0.0,0.0,0.0,0.0,0.0,0.0,0.0,-4.8985945807980186e-05,-0.0002112352384774933,7.970660465961571e-06,0.0,0.0,0.0,0.0,0.0,0.0,0.0,0.0,0.0,9.991624378792562e-11,3.1147372770950176e-10,4.954887243076076e-12,0.0,0.0,0.0,0.0,0.0,0.0,0.0,0.0,0.0
100.868,100628,100,868000000,base_footprint,-1.954377681313202e-06,0.001589650125993033,0.00018414623250643646,0.9999987195485913,0.0,0.0,0.0,0.0,0.0,0.0,0.0,0.0,0.0,-4.898594419426633e-05,-0.00021123523890367136,7.970662384321265e-06,0.0,0.0,0.0,0.0,0.0,0.0,0.0,0.0,0.0,9.998324753982579e-11,3.1162310526458466e-10,8.218938178240495e-12,0.0,0.0,0.0,0.0,0.0,0.0,0.0,0.0,0.0
100.869,100629,100,869000000,base_footprint,-1.954380590718345e-06,0.0015896501259902484,0.00018414806334160708,0.9999987195482544,0.0,0.0,0.0,0.0,0.0,0.0,0.0,0.0,0.0,-4.898594260721595e-05,-0.00021123523933176395,7.97066428893533e-06,0.0,0.0,0.0,0.0,0.0,0.0,0.0,0.0,0.0,9.923729653868349e-11,3.0935510506132796e-10,7.216855798812041e-12,0.0,0.0,0.0,0.0,0.0,0.0,0.0,0.0,0.0
100.87,100630,100,870000000,base_footprint,-1.9543835001098794e-06,0.0015896501259874693,0.00018414989417689023,0.9999987195479172,0.0,0.0,0.0,0.0,0.0,0.0,0.0,0.0,0.0,-4.898594097422932e-05,-0.00021123523975340798,7.97066618919139e-06,0.0,0.0,0.0,0.0,0.0,0.0,0.0,0.0,0.0,9.900578572843264e-11,3.087189399534269e-10,7.813482001150468e-12,0.0,0.0,0.0,0.0,0.0,0.0,0.0,0.0,0.0
100.871,100631,100,871000000,base_footprint,-1.9543864095126663e-06,0.0015896501259846894,0.00018415172501230116,0.99999871954758,0.0,0.0,0.0,0.0,0.0,0.0,0.0,0.0,0.0,-4.8985939391214914e-05,-0.00021123524018948554,7.970668120292254e-06,0.0,0.0,0.0,0.0,0.0,0.0,0.0,0.0,0.0,1.006801599532008e-10,3.13641234092417e-10,1.0255538780200658e-11,0.0,0.0,0.0,0.0,0.0,0.0,0.0,0.0,0.0
100.871,100632,100,872000000,base_footprint,-1.9543893189091047e-06,0.0015896501259818985,0.00018415355584783567,0.9999987195472428,0.0,0.0,0.0,0.0,0.0,0.0,0.0,0.0,0.0,-4.898593777267267e-05,-0.00021123524064530812,7.970670042627708e-06,0.0,0.0,0.0,0.0,0.0,0.0,0.0,0.0,0.0,1.0023248105327788e-10,3.1227454281115207e-10,9.571728664389518e-12,0.0,0.0,0.0,0.0,0.0,0.0,0.0,0.0,0.0
100.871,365908,1778966439,636840738,imu_link,0.010934134013950825,-0.02380087785422802,0.20286299288272858,0.978852391242981,0.0024999999441206455,0.0,0.0,0.0,0.0024999999441206455,0.0,0.0,0.0,0.0024999999441206455,0.0,0.0,0.0,0.019999999552965164,0.0,0.0,0.0,0.019999999552965164,0.0,0.0,0.0,0.019999999552965164,0.4902127981185913,0.14844051003456116,9.625887870788574,0.03999999910593033,0.0,0.0,0.0,0.03999999910593033,0.0,0.0,0.0,0.03999999910593033
100.873,100633,100,873000000,base_footprint,-1.9543922283055752e-06,0.0015896501259791062,0.00018415538668347666,0.9999987195469057,0.0,0.0,0.0,0.0,0.0,0.0,0.0,0.0,0.0,-4.898593616718076e-05,-0.00021123524108148373,7.970671930932495e-06,0.0,0.0,0.0,0.0,0.0,0.0,0.0,0.0,0.0,9.837512325731369e-11,3.0674040966157325e-10,8.72362828427876e-12,0.0,0.0,0.0,0.0,0.0,0.0,0.0,0.0,0.0
100.873,100634,100,874000000,base_footprint,-1.9543951377005732e-06,0.0015896501259763146,0.00018415721751924126,0.9999987195465685,0.0,0.0,0.0,0.0,0.0,0.0,0.0,0.0,0.0,-4.898593455858968e-05,-0.00021123524151412073,7.970673853374928e-06,0.0,0.0,0.0,0.0,0.0,0.0,0.0,0.0,0.0,1.0021173200136706e-10,3.1227713300223566e-10,9.280474793511079e-12,0.0,0.0,0.0,0.0,0.0,0.0,0.0,0.0,0.0
100.874,100635,100,875000000,base_footprint,-1.954398047096079e-06,0.0015896501259735282,0.00018415904835511875,0.9999987195462313,0.0,0.0,0.0,0.0,0.0,0.0,0.0,0.0,0.0,-4.8985932954004605e-05,-0.0002112352419373534,7.970675754444384e-06,0.0,0.0,0.0,0.0,0.0,0.0,0.0,0.0,0.0,9.904646715406492e-11,3.088073127726012e-10,7.780446544850898e-12,0.0,0.0,0.0,0.0,0.0,0.0,0.0,0.0,0.0
100.875,100636,100,876000000,base_footprint,-1.954400956496364e-06,0.00158965012597074,0.0001841608791911119,0.9999987195458941,0.0,0.0,0.0,0.0,0.0,0.0,0.0,0.0,0.0,-4.8985931357957336e-05,-0.00021123524237487147,7.970677661145802e-06,0.0,0.0,0.0,0.0,0.0,0.0,0.0,0.0,0.0,9.936421549280492e-11,3.0970727782749433e-10,8.425525168018602e-12,0.0,0.0,0.0,0.0,0.0,0.0,0.0,0.0,0.0
100.877,100637,100,877000000,base_footprint,-1.9544038658930593e-06,0.0015896501259679437,0.00018416271002722292,0.999998719545557,0.0,0.0,0.0,0.0,0.0,0.0,0.0,0.0,0.0,-4.898592974505927e-05,-0.0002112352428251228,7.970679572135535e-06,0.0,0.0,0.0,0.0,0.0,0.0,0.0,0.0,0.0,9.961534658032044e-11,3.104276986789714e-10,9.795155198674712e-12,0.0,0.0,0.0,0.0,0.0,0.0,0.0,0.0,0.0
100.878,100638,100,878000000,base_footprint,-1.9544067752993126e-06,0.0015896501259651521,0.00018416454086346532,0.9999987195452198,0.0,0.0,0.0,0.0,0.0,0.0,0.0,0.0,0.0,-4.8985928158511135e-05,-0.00021123524324927147,7.970681510328109e-06,0.0,0.0,0.0,0.0,0.0,0.0,0.0,0.0,0.0,1.0104491310363295e-10,3.1479563984488617e-10,8.409445503801037e-12,0.0,0.0,0.0,0.0,0.0,0.0,0.0,0.0,0.0
100.879,100639,100,879000000,base_footprint,-1.9544096847060933e-06,0.001589650125962359,0.00018416637169981997,0.9999987195448826,0.0,0.0,0.0,0.0,0.0,0.0,0.0,0.0,0.0,-4.89859265538853e-05,-0.00021123524368668636,7.970683410146731e-06,0.0,0.0,0.0,0.0,0.0,0.0,0.0,0.0,0.0,9.900120978286278e-11,3.086046059606489e-10,1.020647884506199e-11,0.0,0.0,0.0,0.0,0.0,0.0,0.0,0.0,0.0
100.88,100640,100,880000000,base_footprint,-1.954412594103412e-06,0.0015896501259595635,0.00018416820253629493,0.9999987195445454,0.0,0.0,0.0,0.0,0.0,0.0,0.0,0.0,0.0,-4.898592492926521e-05,-0.0002112352441248221,7.970685325919983e-06,0.0,0.0,0.0,0.0,0.0,0.0,0.0,0.0,0.0,9.98529865253934e-11,3.112207135804471e-10,6.749466664481566e-12,0.0,0.0,0.0,0.0,0.0,0.0,0.0,0.0,0.0
100.881,100641,100,881000000,base_footprint,-1.9544155035104973e-06,0.0015896501259567784,0.0001841700333728817,0.9999987195442083,0.0,0.0,0.0,0.0,0.0,0.0,0.0,0.0,0.0,-4.8985923343287726e-05,-0.00021123524453786394,7.970687224968057e-06,0.0,0.0,0.0,0.0,0.0,0.0,0.0,0.0,0.0,9.892085002568354e-11,3.084516117712168e-10,6.814818479959618e-12,0.0,0.0,0.0,0.0,0.0,0.0,0.0,0.0,0.0
100.882,100642,100,882000000,base_footprint,-1.9544184129121462e-06,0.0015896501259539877,0.00018417186420959146,0.9999987195438711,0.0,0.0,0.0,0.0,0.0,0.0,0.0,0.0,0.0,-4.898592172664555e-05,-0.00021123524498315442,7.970689146093832e-06,0.0,0.0,0.0,0.0,0.0,0.0,0.0,0.0,0.0,1.0015399736251988e-10,3.120758995655315e-10,8.936287769651728e-12,0.0,0.0,0.0,0.0,0.0,0.0,0.0,0.0,0.0
100.883,100643,100,883000000,base_footprint,-1.954421322304449e-06,0.0015896501259511913,0.00018417369504642372,0.9999987195435339,0.0,0.0,0.0,0.0,0.0,0.0,0.0,0.0,0.0,-4.898592010228669e-05,-0.00021123524542823984,7.97069106632053e-06,0.0,0.0,0.0,0.0,0.0,0.0,0.0,0.0,0.0,1.0010831549603689e-10,3.119418092110686e-10,9.379528944197747e-12,0.0,0.0,0.0,0.0,0.0,0.0,0.0,0.0,0.0
100.884,100644,100,884000000,base_footprint,-1.9544242317119496e-06,0.0015896501259483964,0.00018417552588337823,0.9999987195431967,0.0,0.0,0.0,0.0,0.0,0.0,0.0,0.0,0.0,-4.89859185270908e-05,-0.00021123524585917367,7.970692986299294e-06,0.0,0.0,0.0,0.0,0.0,0.0,0.0,0.0,0.0,1.0007159985074343e-10,3.118268614952115e-10,9.185281637004782e-12,0.0,0.0,0.0,0.0,0.0,0.0,0.0,0.0,0.0
100.884,365909,1778966439,641840738,imu_link,0.011642808094620705,-0.023566188290715218,0.20284345746040344,0.9788539409637451,0.0024999999441206455,0.0,0.0,0.0,0.0024999999441206455,0.0,0.0,0.0,0.0024999999441206455,0.0,0.0,0.0,0.019999999552965164,0.0,0.0,0.0,0.019999999552965164,0.0,0.0,0.0,0.019999999552965164,0.48063597083091736,0.18555063009262085,9.570820808410645,0.03999999910593033,0.0,0.0,0.0,0.03999999910593033,0.0,0.0,0.0,0.03999999910593033
100.885,100645,100,885000000,base_footprint,-1.954427141103591e-06,0.0015896501259456066,0.00018417735672044262,0.9999987195428596,0.0,0.0,0.0,0.0,0.0,0.0,0.0,0.0,0.0,-4.8985916889606685e-05,-0.0002112352462829238,7.970694881150836e-06,0.0,0.0,0.0,0.0,0.0,0.0,0.0,0.0,0.0,9.871451073932957e-11,3.0784984482200077e-10,6.764187388834533e-12,0.0,0.0,0.0,0.0,0.0,0.0,0.0,0.0,0.0
100.886,100646,100,886000000,base_footprint,-1.954430050494742e-06,0.001589650125942825,0.00018417918755762763,0.9999987195425224,0.0,0.0,0.0,0.0,0.0,0.0,0.0,0.0,0.0,-4.898591528307898e-05,-0.00021123524670002813,7.970696797631462e-06,0.0,0.0,0.0,0.0,0.0,0.0,0.0,0.0,0.0,9.987115398219787e-11,3.1130802700243435e-10,8.213393754012255e-12,0.0,0.0,0.0,0.0,0.0,0.0,0.0,0.0,0.0
100.887,100647,100,887000000,base_footprint,-1.9544329598962503e-06,0.0015896501259400405,0.0001841810183949306,0.9999987195421852,0.0,0.0,0.0,0.0,0.0,0.0,0.0,0.0,0.0,-4.898591369821639e-05,-0.00021123524713957407,7.970698709030137e-06,0.0,0.0,0.0,0.0,0.0,0.0,0.0,0.0,0.0,9.961943672731873e-11,3.10451178459149e-10,9.016511551417572e-12,0.0,0.0,0.0,0.0,0.0,0.0,0.0,0.0,0.0
100.888,100648,100,888000000,base_footprint,-1.9544358693036777e-06,0.001589650125937244,0.00018418284923234384,0.9999987195418479,0.0,0.0,0.0,0.0,0.0,0.0,0.0,0.0,0.0,-4.898591210439431e-05,-0.0002112352475971129,7.970700604975644e-06,0.0,0.0,0.0,0.0,0.0,0.0,0.0,0.0,0.0,9.880615412396058e-11,3.079607419698744e-10,8.764367055588787e-12,0.0,0.0,0.0,0.0,0.0,0.0,0.0,0.0,0.0
100.889,100649,100,889000000,base_footprint,-1.954438778711062e-06,0.0015896501259344495,0.0001841846800698835,0.9999987195415107,0.0,0.0,0.0,0.0,0.0,0.0,0.0,0.0,0.0,-4.898591049858558e-05,-0.00021123524802745553,7.970702533136839e-06,0.0,0.0,0.0,0.0,0.0,0.0,0.0,0.0,0.0,1.0051261472188911e-10,3.1319959550902893e-10,7.960812554815811e-12,0.0,0.0,0.0,0.0,0.0,0.0,0.0,0.0,0.0
100.89,100650,100,890000000,base_footprint,-1.9544416881105195e-06,0.0015896501259316483,0.00018418651090754495,0.9999987195411735,0.0,0.0,0.0,0.0,0.0,0.0,0.0,0.0,0.0,-4.898590887702909e-05,-0.00021123524847462612,7.970704451992089e-06,0.0,0.0,0.0,0.0,0.0,0.0,0.0,0.0,0.0,1.0004677959511127e-10,3.117151505484106e-10,1.2676353813385965e-11,0.0,0.0,0.0,0.0,0.0,0.0,0.0,0.0,0.0
100.891,100651,100,891000000,base_footprint,-1.954444597512121e-06,0.0015896501259288502,0.00018418834174532754,0.9999987195408363,0.0,0.0,0.0,0.0,0.0,0.0,0.0,0.0,0.0,-4.8985907275672525e-05,-0.00021123524890225028,7.970706369483508e-06,0.0,0.0,0.0,0.0,0.0,0.0,0.0,0.0,0.0,9.993254964979203e-11,3.114637121941457e-10,7.260877272627104e-12,0.0,0.0,0.0,0.0,0.0,0.0,0.0,0.0,0.0
100.892,100652,100,892000000,base_footprint,-1.9544475069232545e-06,0.0015896501259260608,0.00018419017258322864,0.9999987195404991,0.0,0.0,0.0,0.0,0.0,0.0,0.0,0.0,0.0,-4.8985905689153834e-05,-0.0002112352493187015,7.970708281913005e-06,0.0,0.0,0.0,0.0,0.0,0.0,0.0,0.0,0.0,9.964347166341707e-11,3.1062072427946203e-10,6.339573098057979e-12,0.0,0.0,0.0,0.0,0.0,0.0,0.0,0.0,0.0
100.893,100653,100,893000000,base_footprint,-1.9544504163173077e-06,0.0015896501259232657,0.0001841920034212528,0.9999987195401618,0.0,0.0,0.0,0.0,0.0,0.0,0.0,0.0,0.0,-4.898590404914094e-05,-0.00021123524976340204,7.970710203098035e-06,0.0,0.0,0.0,0.0,0.0,0.0,0.0,0.0,0.0,1.0016050977039027e-10,3.1212116113466345e-10,8.95546407304779e-12,0.0,0.0,0.0,0.0,0.0,0.0,0.0,0.0,0.0
100.894,100654,100,894000000,base_footprint,-1.954453325721158e-06,0.0015896501259204767,0.0001841938342593817,0.9999987195398248,0.0,0.0,0.0,0.0,0.0,0.0,0.0,0.0,0.0,-4.898590246331192e-05,-0.00021123525018587545,7.970712087975553e-06,0.0,0.0,0.0,0.0,0.0,0.0,0.0,0.0,0.0,9.817063719382379e-11,3.061549435112559e-10,7.795928163562452e-12,0.0,0.0,0.0,0.0,0.0,0.0,0.0,0.0,0.0
100.895,100655,100,895000000,base_footprint,-1.9544562351233194e-06,0.0015896501259176855,0.00018419566509764092,0.9999987195394875,0.0,0.0,0.0,0.0,0.0,0.0,0.0,0.0,0.0,-4.898590085414627e-05,-0.0002112352506237897,7.97071402389033e-06,0.0,0.0,0.0,0.0,0.0,0.0,0.0,0.0,0.0,1.0094464322781882e-10,3.144612177173843e-10,9.998787245068424e-12,0.0,0.0,0.0,0.0,0.0,0.0,0.0,0.0,0.0
100.896,100656,100,896000000,base_footprint,-1.9544591445228164e-06,0.0015896501259148963,0.0001841974959360171,0.9999987195391502,0.0,0.0,0.0,0.0,0.0,0.0,0.0,0.0,0.0,-4.8985899243099884e-05,-0.0002112352510538955,7.970715933085458e-06,0.0,0.0,0.0,0.0,0.0,0.0,0.0,0.0,0.0,9.949364213936343e-11,3.1013374432925364e-10,8.260339233623979e-12,0.0,0.0,0.0,0.0,0.0,0.0,0.0,0.0,0.0
100.897,100657,100,897000000,base_footprint,-1.9544620539270725e-06,0.0015896501259121132,0.00018419932677451642,0.9999987195388129,0.0,0.0,0.0,0.0,0.0,0.0,0.0,0.0,0.0,-4.8985897646953614e-05,-0.0002112352514752902,7.970717854708283e-06,0.0,0.0,0.0,0.0,0.0,0.0,0.0,0.0,0.0,1.0014279624141879e-10,3.121253237182585e-10,5.7137462533169206e-12,0.0,0.0,0.0,0.0,0.0,0.0,0.0,0.0,0.0
100.898,100658,100,898000000,base_footprint,-1.9544649633328032e-06,0.001589650125909324,0.00018420115761314077,0.9999987195384756,0.0,0.0,0.0,0.0,0.0,0.0,0.0,0.0,0.0,-4.898589604423152e-05,-0.00021123525192159333,7.970719780065398e-06,0.0,0.0,0.0,0.0,0.0,0.0,0.0,0.0,0.0,1.0038235559994496e-10,3.127402331924578e-10,9.483639224524566e-12,0.0,0.0,0.0,0.0,0.0,0.0,0.0,0.0,0.0
100.899,100659,100,899000000,base_footprint,-1.954467872729988e-06,0.0015896501259065276,0.00018420298845187675,0.9999987195381383,0.0,0.0,0.0,0.0,0.0,0.0,0.0,0.0,0.0,-4.8985894421510386e-05,-0.00021123525236971046,7.970721678514745e-06,0.0,0.0,0.0,0.0,0.0,0.0,0.0,0.0,0.0,9.894066680682697e-11,3.0841038377314493e-10,1.0064220798298062e-11,0.0,0.0,0.0,0.0,0.0,0.0,0.0,0.0,0.0
100.9,100660,100,900000000,base_footprint,-1.9544707821256563e-06,0.0015896501259037344,0.00018420481929072287,0.9999987195378013,0.0,0.0,0.0,0.0,0.0,0.0,0.0,0.0,0.0,-4.8985892812937885e-05,-0.00021123525279797355,7.970723573974844e-06,0.0,0.0,0.0,0.0,0.0,0.0,0.0,0.0,0.0,9.875322065411514e-11,3.0790476001530175e-10,8.909602540043253e-12,0.0,0.0,0.0,0.0,0.0,0.0,0.0,0.0,0.0
100.901,100661,100,901000000,base_footprint,-1.95447369153139e-06,0.0015896501259009457,0.00018420665012970316,0.999998719537464,0.0,0.0,0.0,0.0,0.0,0.0,0.0,0.0,0.0,-4.898589122732677e-05,-0.0002112352532218998,7.970725517833406e-06,0.0,0.0,0.0,0.0,0.0,0.0,0.0,0.0,0.0,1.013465594182518e-10,3.157125816436863e-10,7.572321000616673e-12,0.0,0.0,0.0,0.0,0.0,0.0,0.0,0.0,0.0
100.902,100662,100,902000000,base_footprint,-1.954476600944279e-06,0.0015896501258981593,0.00018420848096880138,0.9999987195371267,0.0,0.0,0.0,0.0,0.0,0.0,0.0,0.0,0.0,-4.898588963593089e-05,-0.00021123525365128842,7.970727429106837e-06,0.0,0.0,0.0,0.0,0.0,0.0,0.0,0.0,0.0,9.959963109625124e-11,3.1044056435799483e-10,7.673153140456314e-12,0.0,0.0,0.0,0.0,0.0,0.0,0.0,0.0,0.0
100.903,100663,100,903000000,base_footprint,-1.9544795103488193e-06,0.0015896501258953674,0.00018421031180801867,0.9999987195367894,0.0,0.0,0.0,0.0,0.0,0.0,0.0,0.0,0.0,-4.8985888013529856e-05,-0.0002112352540958321,7.97072934239291e-06,0.0,0.0,0.0,0.0,0.0,0.0,0.0,0.0,0.0,9.972999072518289e-11,3.1081433282669214e-10,8.31285997708615e-12,0.0,0.0,0.0,0.0,0.0,0.0,0.0,0.0,0.0
100.904,100664,100,904000000,base_footprint,-1.9544824197498117e-06,0.0015896501258925834,0.00018421214264734492,0.9999987195364521,0.0,0.0,0.0,0.0,0.0,0.0,0.0,0.0,0.0,-4.898588640082459e-05,-0.00021123525451400882,7.970731235582161e-06,0.0,0.0,0.0,0.0,0.0,0.0,0.0,0.0,0.0,9.861854040332421e-11,3.075428862748494e-10,7.900228440874192e-12,0.0,0.0,0.0,0.0,0.0,0.0,0.0,0.0,0.0
100.905,100665,100,905000000,base_footprint,-1.954485329152371e-06,0.0015896501258897966,0.00018421397348679564,0.9999987195361149,0.0,0.0,0.0,0.0,0.0,0.0,0.0,0.0,0.0,-4.898588479833141e-05,-0.00021123525495343805,7.97073315984263e-06,0.0,0.0,0.0,0.0,0.0,0.0,0.0,0.0,0.0,1.0031165415624715e-10,3.12562567536785e-10,8.182991780663186e-12,0.0,0.0,0.0,0.0,0.0,0.0,0.0,0.0,0.0
100.906,100666,100,906000000,base_footprint,-1.9544882385595622e-06,0.0015896501258870056,0.00018421580432636473,0.9999987195357776,0.0,0.0,0.0,0.0,0.0,0.0,0.0,0.0,0.0,-4.898588320193818e-05,-0.00021123525539558415,7.970735071922446e-06,0.0,0.0,0.0,0.0,0.0,0.0,0.0,0.0,0.0,9.965997603718969e-11,3.1057905581451504e-10,8.786787498009915e-12,0.0,0.0,0.0,0.0,0.0,0.0,0.0,0.0,0.0
100.907,100667,100,907000000,base_footprint,-1.9544911479588932e-06,0.0015896501258842138,0.00018421763516604826,0.9999987195354403,0.0,0.0,0.0,0.0,0.0,0.0,0.0,0.0,0.0,-4.8985881580549825e-05,-0.00021123525583142052,7.970736976000529e-06,0.0,0.0,0.0,0.0,0.0,0.0,0.0,0.0,0.0,9.922827302808752e-11,3.093205999267121e-10,9.225081024127845e-12,0.0,0.0,0.0,0.0,0.0,0.0,0.0,0.0,0.0
100.908,100668,100,908000000,base_footprint,-1.9544940573595393e-06,0.0015896501258814187,0.0001842194660058575,0.999998719535103,0.0,0.0,0.0,0.0,0.0,0.0,0.0,0.0,0.0,-4.898587997749375e-05,-0.00021123525627157448,7.970738902786731e-06,0.0,0.0,0.0,0.0,0.0,0.0,0.0,0.0,0.0,1.0045203903125625e-10,3.1297255120877706e-10,9.237552184468072e-12,0.0,0.0,0.0,0.0,0.0,0.0,0.0,0.0,0.0
100.909,100669,100,909000000,base_footprint,-1.9544969667647957e-06,0.0015896501258786237,0.00018422129684578177,0.9999987195347657,0.0,0.0,0.0,0.0,0.0,0.0,0.0,0.0,0.0,-4.898587838111915e-05,-0.00021123525670538074,7.970740808183841e-06,0.0,0.0,0.0,0.0,0.0,0.0,0.0,0.0,0.0,9.929398677157028e-11,3.094961231320431e-10,9.485833308956789e-12,0.0,0.0,0.0,0.0,0.0,0.0,0.0,0.0,0.0
100.909,365910,1778966439,650840738,imu_link,0.012663522735238075,-0.022995350882411003,0.2028135359287262,0.9788609743118286,0.0024999999441206455,0.0,0.0,0.0,0.0024999999441206455,0.0,0.0,0.0,0.0024999999441206455,0.0,0.0,0.0,0.019999999552965164,0.0,0.0,0.0,0.019999999552965164,0.0,0.0,0.0,0.019999999552965164,0.47465047240257263,0.17058686912059784,9.589376449584961,0.03999999910593033,0.0,0.0,0.0,0.03999999910593033,0.0,0.0,0.0,0.03999999910593033
100.91,100670,100,910000000,base_footprint,-1.954499876174127e-06,0.0015896501258758293,0.00018422312768582729,0.9999987195344284,0.0,0.0,0.0,0.0,0.0,0.0,0.0,0.0,0.0,-4.898587678363452e-05,-0.0002112352571379807,7.970742726085883e-06,0.0,0.0,0.0,0.0,0.0,0.0,0.0,0.0,0.0,9.996561928206047e-11,3.115243778612324e-10,9.36760410203141e-12,0.0,0.0,0.0,0.0,0.0,0.0,0.0,0.0,0.0
100.911,100671,100,911000000,base_footprint,-1.9545027855910214e-06,0.0015896501258730346,0.00018422495852598794,0.9999987195340913,0.0,0.0,0.0,0.0,0.0,0.0,0.0,0.0,0.0,-4.8985875193067004e-05,-0.00021123525757259863,7.970744631742375e-06,0.0,0.0,0.0,0.0,0.0,0.0,0.0,0.0,0.0,9.930392714035163e-11,3.095293969963106e-10,8.315738203175287e-12,0.0,0.0,0.0,0.0,0.0,0.0,0.0,0.0,0.0
100.912,100672,100,912000000,base_footprint,-1.9545056949874424e-06,0.001589650125870242,0.0001842267893662614,0.9999987195337539,0.0,0.0,0.0,0.0,0.0,0.0,0.0,0.0,0.0,-4.8985873546373996e-05,-0.0002112352580016323,7.970746532407691e-06,0.0,0.0,0.0,0.0,0.0,0.0,0.0,0.0,0.0,9.903442142254665e-11,3.08806144961862e-10,6.868449237392582e-12,0.0,0.0,0.0,0.0,0.0,0.0,0.0,0.0,0.0
100.913,100673,100,913000000,base_footprint,-1.954508604390394e-06,0.0015896501258674534,0.0001842286202066657,0.9999987195334166,0.0,0.0,0.0,0.0,0.0,0.0,0.0,0.0,0.0,-4.8985871953830875e-05,-0.0002112352584274109,7.970748469350202e-06,0.0,0.0,0.0,0.0,0.0,0.0,0.0,0.0,0.0,1.009711436292002e-10,3.1460240745220225e-10,5.669671202114227e-12,0.0,0.0,0.0,0.0,0.0,0.0,0.0,0.0,0.0
100.914,100674,100,914000000,base_footprint,-1.9545115137832724e-06,0.0015896501258646667,0.00018423045104718218,0.9999987195330793,0.0,0.0,0.0,0.0,0.0,0.0,0.0,0.0,0.0,-4.898587032804458e-05,-0.00021123525885767742,7.970750368873612e-06,0.0,0.0,0.0,0.0,0.0,0.0,0.0,0.0,0.0,9.898487155601339e-11,3.0858887078989415e-10,1.117536513970439e-11,0.0,0.0,0.0,0.0,0.0,0.0,0.0,0.0,0.0
100.915,100675,100,915000000,base_footprint,-1.954514423191935e-06,0.0015896501258618734,0.00018423228188781053,0.999998719532742,0.0,0.0,0.0,0.0,0.0,0.0,0.0,0.0,0.0,-4.8985868754094263e-05,-0.00021123525930515083,7.970752268192602e-06,0.0,0.0,0.0,0.0,0.0,0.0,0.0,0.0,0.0,9.89753166012996e-11,3.084774047541482e-10,9.230463013490707e-12,0.0,0.0,0.0,0.0,0.0,0.0,0.0,0.0,0.0
100.916,100676,100,916000000,base_footprint,-1.954517332605076e-06,0.001589650125859088,0.00018423411272856305,0.9999987195324047,0.0,0.0,0.0,0.0,0.0,0.0,0.0,0.0,0.0,-4.898586715731675e-05,-0.00021123525972253224,7.970754191823393e-06,0.0,0.0,0.0,0.0,0.0,0.0,0.0,0.0,0.0,1.0024713040883262e-10,3.1245162651066283e-10,5.761965180839206e-12,0.0,0.0,0.0,0.0,0.0,0.0,0.0,0.0,0.0
