Time,header.seq,header.stamp.secs,header.stamp.nsecs,header.frame_id,orientation.x,orientation.y,orientation.z,orientation.w,orientation_covariance_0,orientation_covariance_1,orientation_covariance_2,orientation_covariance_3,orientation_covariance_4,orientation_covariance_5,orientation_covariance_6,orientation_covariance_7,orientation_covariance_8,angular_velocity.x,angular_velocity.y,angular_velocity.z,angular_velocity_covariance_0,angular_velocity_covariance_1,angular_velocity_covariance_2,angular_velocity_covariance_3,angular_velocity_covariance_4,angular_velocity_covariance_5,angular_velocity_covariance_6,angular_velocity_covariance_7,angular_velocity_covariance_8,linear_acceleration.x,linear_acceleration.y,linear_acceleration.z,linear_acceleration_covariance_0,linear_acceleration_covariance_1,linear_acceleration_covariance_2,linear_acceleration_covariance_3,linear_acceleration_covariance_4,linear_acceleration_covariance_5,linear_acceleration_covariance_6,linear_acceleration_covariance_7,linear_acceleration_covariance_8
55.194,0,55,188000000,base_footprint,-1.820587669343346e-06,0.001589650249493665,9.995489832330455e-05,0.9999987315080895,0.0,0.0,0.0,0.0,0.0,0.0,0.0,0.0,0.0,-4.905956972210939e-05,-0.00021121532453313935,7.882705164729143e-06,0.0,0.0,0.0,0.0,0.0,0.0,0.0,0.0,0.0,-2.082616227255572e-07,-5.246451053728921e-07,0.00017311245748877533,0.0,0.0,0.0,0.0,0.0,0.0,0.0,0.0,0.0
55.194,1,55,189000000,base_footprint,-1.820590570105312e-06,0.0015896502494911033,9.995672369215198e-05,0.9999987315079071,0.0,0.0,0.0,0.0,0.0,0.0,0.0,0.0,0.0,-4.905956816024587e-05,-0.00021121532493953115,7.882707062132761e-06,0.0,0.0,0.0,0.0,0.0,0.0,0.0,0.0,0.0,9.898516325564251e-11,3.081348430702531e-10,5.292186877667972e-12,0.0,0.0,0.0,0.0,0.0,0.0,0.0,0.0,0.0
55.194,2,55,190000000,base_footprint,-1.820593470860644e-06,0.0015896502494885415,9.995854906110413e-05,0.9999987315077247,0.0,0.0,0.0,0.0,0.0,0.0,0.0,0.0,0.0,-4.905956655253777e-05,-0.00021121532537216552,7.882708941559022e-06,0.0,0.0,0.0,0.0,0.0,0.0,0.0,0.0,0.0,9.805863997160762e-11,3.0529161365016433e-10,7.839765643969542e-12,0.0,0.0,0.0,0.0,0.0,0.0,0.0,0.0,0.0
55.194,3,55,191000000,base_footprint,-1.8205963716060024e-06,0.001589650249485986,9.996037443018189e-05,0.9999987315075423,0.0,0.0,0.0,0.0,0.0,0.0,0.0,0.0,0.0,-4.905956493806909e-05,-0.00021121532579217972,7.882710862803927e-06,0.0,0.0,0.0,0.0,0.0,0.0,0.0,0.0,0.0,1.0029862258704073e-10,3.1207836849216663e-10,7.2310987621787755e-12,0.0,0.0,0.0,0.0,0.0,0.0,0.0,0.0,0.0
55.194,4,55,192000000,base_footprint,-1.8205992723519167e-06,0.0015896502494834272,9.996219979937742e-05,0.9999987315073597,0.0,0.0,0.0,0.0,0.0,0.0,0.0,0.0,0.0,-4.9059563344880794e-05,-0.00021121532623174477,7.88271276852601e-06,0.0,0.0,0.0,0.0,0.0,0.0,0.0,0.0,0.0,9.948289791339797e-11,3.095302087930433e-10,8.550309852491841e-12,0.0,0.0,0.0,0.0,0.0,0.0,0.0,0.0,0.0
55.194,5,55,193000000,base_footprint,-1.8206021730982276e-06,0.0015896502494808687,9.996402516869557e-05,0.9999987315071772,0.0,0.0,0.0,0.0,0.0,0.0,0.0,0.0,0.0,-4.9059561751121056e-05,-0.00021121532666317047,7.882714683922559e-06,0.0,0.0,0.0,0.0,0.0,0.0,0.0,0.0,0.0,9.999553654669961e-11,3.1109885421059213e-10,8.401614584926961e-12,0.0,0.0,0.0,0.0,0.0,0.0,0.0,0.0,0.0
55.194,6,55,194000000,base_footprint,-1.8206050738634627e-06,0.0015896502494783134,9.996585053813602e-05,0.9999987315069947,0.0,0.0,0.0,0.0,0.0,0.0,0.0,0.0,0.0,-4.905956019461348e-05,-0.00021121532708915164,7.882716598961709e-06,0.0,0.0,0.0,0.0,0.0,0.0,0.0,0.0,0.0,9.995616219209651e-11,3.109841641280113e-10,5.780952824369767e-12,0.0,0.0,0.0,0.0,0.0,0.0,0.0,0.0,0.0
55.195,7,55,195000000,base_footprint,-1.8206079746217483e-06,0.0015896502494757638,9.996767590769268e-05,0.9999987315068122,0.0,0.0,0.0,0.0,0.0,0.0,0.0,0.0,0.0,-4.9059558586205135e-05,-0.00021121532751023256,7.882718501430104e-06,0.0,0.0,0.0,0.0,0.0,0.0,0.0,0.0,0.0,9.929397958325246e-11,3.090263198687492e-10,9.385488083458204e-12,0.0,0.0,0.0,0.0,0.0,0.0,0.0,0.0,0.0
55.196,8,55,196000000,base_footprint,-1.8206108753789248e-06,0.0015896502494732042,9.99695012773691e-05,0.9999987315066299,0.0,0.0,0.0,0.0,0.0,0.0,0.0,0.0,0.0,-4.9059556989585285e-05,-0.0002112153279634989,7.882720411179696e-06,0.0,0.0,0.0,0.0,0.0,0.0,0.0,0.0,0.0,9.972723501800556e-11,3.1018832739658773e-10,1.2730343535747874e-11,0.0,0.0,0.0,0.0,0.0,0.0,0.0,0.0,0.0
55.197,9,55,197000000,base_footprint,-1.8206137761286139e-06,0.0015896502494706325,9.997132664716568e-05,0.9999987315064474,0.0,0.0,0.0,0.0,0.0,0.0,0.0,0.0,0.0,-4.9059555380082634e-05,-0.00021121532841970395,7.882722321609604e-06,0.0,0.0,0.0,0.0,0.0,0.0,0.0,0.0,0.0,9.975558240453963e-11,3.103180575372665e-10,8.447212537203516e-12,0.0,0.0,0.0,0.0,0.0,0.0,0.0,0.0,0.0
55.198,10,55,198000000,base_footprint,-1.8206166768829864e-06,0.0015896502494680642,9.997315201707513e-05,0.9999987315062648,0.0,0.0,0.0,0.0,0.0,0.0,0.0,0.0,0.0,-4.905955379506355e-05,-0.000211215328844759,7.882724217598269e-06,0.0,0.0,0.0,0.0,0.0,0.0,0.0,0.0,0.0,9.893558979557602e-11,3.0794074794059594e-10,6.510777782820964e-12,0.0,0.0,0.0,0.0,0.0,0.0,0.0,0.0,0.0
55.199,11,55,199000000,base_footprint,-1.8206195776470508e-06,0.0015896502494654983,9.997497738710333e-05,0.9999987315060823,0.0,0.0,0.0,0.0,0.0,0.0,0.0,0.0,0.0,-4.905955222007888e-05,-0.00021121532927261303,7.882726125447298e-06,0.0,0.0,0.0,0.0,0.0,0.0,0.0,0.0,0.0,9.958791057875399e-11,3.098474101678286e-10,1.0330446957085926e-11,0.0,0.0,0.0,0.0,0.0,0.0,0.0,0.0,0.0
55.2,12,55,200000000,base_footprint,-1.8206224783931683e-06,0.001589650249462927,9.997680275725252e-05,0.9999987315058998,0.0,0.0,0.0,0.0,0.0,0.0,0.0,0.0,0.0,-4.905955058959203e-05,-0.0002112153297160736,7.882728037324046e-06,0.0,0.0,0.0,0.0,0.0,0.0,0.0,0.0,0.0,9.982254390630831e-11,3.1058433311921887e-10,7.839679664376105e-12,0.0,0.0,0.0,0.0,0.0,0.0,0.0,0.0,0.0
55.201,13,55,201000000,base_footprint,-1.8206253791399917e-06,0.001589650249460358,9.997862812751587e-05,0.9999987315057173,0.0,0.0,0.0,0.0,0.0,0.0,0.0,0.0,0.0,-4.905954899662168e-05,-0.00021121533014395252,7.88272993586756e-06,0.0,0.0,0.0,0.0,0.0,0.0,0.0,0.0,0.0,9.908822951997917e-11,3.0836692768017995e-10,9.927327065769906e-12,0.0,0.0,0.0,0.0,0.0,0.0,0.0,0.0,0.0
55.202,14,55,202000000,base_footprint,-1.8206282798826238e-06,0.0015896502494577947,9.998045349789908e-05,0.9999987315055348,0.0,0.0,0.0,0.0,0.0,0.0,0.0,0.0,0.0,-4.9059547393772284e-05,-0.00021121533056483207,7.882731845649986e-06,0.0,0.0,0.0,0.0,0.0,0.0,0.0,0.0,0.0,9.968129902337586e-11,3.102031694215071e-10,7.667043252531021e-12,0.0,0.0,0.0,0.0,0.0,0.0,0.0,0.0,0.0
55.203,15,55,203000000,base_footprint,-1.820631180637478e-06,0.0015896502494552336,9.998227886839868e-05,0.9999987315053525,0.0,0.0,0.0,0.0,0.0,0.0,0.0,0.0,0.0,-4.905954582389149e-05,-0.00021121533099373668,7.882733748714547e-06,0.0,0.0,0.0,0.0,0.0,0.0,0.0,0.0,0.0,9.931955876788379e-11,3.090642379771573e-10,6.922960937342289e-12,0.0,0.0,0.0,0.0,0.0,0.0,0.0,0.0,0.0
55.204,16,55,204000000,base_footprint,-1.820634081405506e-06,0.0015896502494526742,9.998410423902312e-05,0.9999987315051699,0.0,0.0,0.0,0.0,0.0,0.0,0.0,0.0,0.0,-4.905954425579051e-05,-0.00021121533142209436,7.882735668826892e-06,0.0,0.0,0.0,0.0,0.0,0.0,0.0,0.0,0.0,1.0023812166828311e-10,3.118239178116916e-10,7.122105587027096e-12,0.0,0.0,0.0,0.0,0.0,0.0,0.0,0.0,0.0
55.205,17,55,205000000,base_footprint,-1.8206369821656344e-06,0.0015896502494501155,9.998592960976457e-05,0.9999987315049874,0.0,0.0,0.0,0.0,0.0,0.0,0.0,0.0,0.0,-4.9059542645415757e-05,-0.00021121533185314642,7.882737572949157e-06,0.0,0.0,0.0,0.0,0.0,0.0,0.0,0.0,0.0,9.939237049441568e-11,3.092972374956998e-10,9.019071116967507e-12,0.0,0.0,0.0,0.0,0.0,0.0,0.0,0.0,0.0
55.206,18,55,206000000,base_footprint,-1.820639882917691e-06,0.0015896502494475427,9.998775498062162e-05,0.9999987315048049,0.0,0.0,0.0,0.0,0.0,0.0,0.0,0.0,0.0,-4.9059541034854375e-05,-0.0002112153323138065,7.88273947423554e-06,0.0,0.0,0.0,0.0,0.0,0.0,0.0,0.0,0.0,9.92776164735849e-11,3.088381235922839e-10,1.1669830809398673e-11,0.0,0.0,0.0,0.0,0.0,0.0,0.0,0.0,0.0
55.207,19,55,207000000,base_footprint,-1.8206427836802431e-06,0.0015896502494449631,9.998958035160309e-05,0.9999987315046223,0.0,0.0,0.0,0.0,0.0,0.0,0.0,0.0,0.0,-4.9059539461459626e-05,-0.00021121533275941,7.88274139348165e-06,0.0,0.0,0.0,0.0,0.0,0.0,0.0,0.0,0.0,1.0021680058554675e-10,3.1169178709072777e-10,9.433304798292833e-12,0.0,0.0,0.0,0.0,0.0,0.0,0.0,0.0,0.0
55.208,20,55,208000000,base_footprint,-1.82064568443555e-06,0.0015896502494424005,9.99914057227022e-05,0.9999987315044396,0.0,0.0,0.0,0.0,0.0,0.0,0.0,0.0,0.0,-4.905953785236341e-05,-0.00021121533315765874,7.882743298735492e-06,0.0,0.0,0.0,0.0,0.0,0.0,0.0,0.0,0.0,9.940498558010606e-11,3.094785316871278e-10,4.210826843581777e-12,0.0,0.0,0.0,0.0,0.0,0.0,0.0,0.0,0.0
55.209,21,55,209000000,base_footprint,-1.820648585185896e-06,0.0015896502494398494,9.999323109391602e-05,0.9999987315042572,0.0,0.0,0.0,0.0,0.0,0.0,0.0,0.0,0.0,-4.905953624809436e-05,-0.0002112153335680167,7.882745198218372e-06,0.0,0.0,0.0,0.0,0.0,0.0,0.0,0.0,0.0,9.911771778873842e-11,3.085363798110067e-10,8.240896689561869e-12,0.0,0.0,0.0,0.0,0.0,0.0,0.0,0.0,0.0
55.21,22,55,210000000,base_footprint,-1.8206514859384592e-06,0.0015896502494372941,9.99950564652494e-05,0.9999987315040746,0.0,0.0,0.0,0.0,0.0,0.0,0.0,0.0,0.0,-4.9059534658113205e-05,-0.00021121533400813411,7.882747107589304e-06,0.0,0.0,0.0,0.0,0.0,0.0,0.0,0.0,0.0,9.968035210418983e-11,3.1011681939849495e-10,8.921725552620259e-12,0.0,0.0,0.0,0.0,0.0,0.0,0.0,0.0,0.0
55.211,23,55,211000000,base_footprint,-1.8206543866914897e-06,0.0015896502494347376,9.99968818367022e-05,0.9999987315038923,0.0,0.0,0.0,0.0,0.0,0.0,0.0,0.0,0.0,-4.905953306458737e-05,-0.00021121533444429946,7.8827490164568e-06,0.0,0.0,0.0,0.0,0.0,0.0,0.0,0.0,0.0,9.963928020399833e-11,3.100404537881167e-10,5.524295241415214e-12,0.0,0.0,0.0,0.0,0.0,0.0,0.0,0.0,0.0
55.212,24,55,212000000,base_footprint,-1.8206572874438395e-06,0.0015896502494321804,9.999870720827443e-05,0.9999987315037098,0.0,0.0,0.0,0.0,0.0,0.0,0.0,0.0,0.0,-4.905953146880011e-05,-0.00021121533487763504,7.88275092557444e-06,0.0,0.0,0.0,0.0,0.0,0.0,0.0,0.0,0.0,9.966570907901578e-11,3.1008461105903245e-10,1.0439588401218017e-11,0.0,0.0,0.0,0.0,0.0,0.0,0.0,0.0,0.0
55.213,25,55,213000000,base_footprint,-1.8206601881979344e-06,0.001589650249429616,0.00010000053257996921,0.9999987315035272,0.0,0.0,0.0,0.0,0.0,0.0,0.0,0.0,0.0,-4.905952987782582e-05,-0.00021121533532422523,7.882752840918903e-06,0.0,0.0,0.0,0.0,0.0,0.0,0.0,0.0,0.0,1.0001298107391237e-10,3.1108616294921633e-10,1.0137104500423677e-11,0.0,0.0,0.0,0.0,0.0,0.0,0.0,0.0,0.0
55.214,26,55,214000000,base_footprint,-1.8206630889610856e-06,0.0015896502494270484,0.00010000235795178042,0.9999987315033446,0.0,0.0,0.0,0.0,0.0,0.0,0.0,0.0,0.0,-4.905952830148934e-05,-0.00021121533576278422,7.882754744087979e-06,0.0,0.0,0.0,0.0,0.0,0.0,0.0,0.0,0.0,9.933688999158524e-11,3.090909664226436e-10,7.196031150906742e-12,0.0,0.0,0.0,0.0,0.0,0.0,0.0,0.0,0.0
55.215,27,55,215000000,base_footprint,-1.8206659897230923e-06,0.001589650249424481,0.00010000418332370965,0.999998731503162,0.0,0.0,0.0,0.0,0.0,0.0,0.0,0.0,0.0,-4.905952670475743e-05,-0.00021121533619463458,7.8827566503577e-06,0.0,0.0,0.0,0.0,0.0,0.0,0.0,0.0,0.0,9.951221878693892e-11,3.0962458467142066e-10,1.0864518395943105e-11,0.0,0.0,0.0,0.0,0.0,0.0,0.0,0.0,0.0
55.216,28,55,216000000,base_footprint,-1.8206688904698598e-06,0.001589650249421916,0.00010000600869575964,0.9999987315029795,0.0,0.0,0.0,0.0,0.0,0.0,0.0,0.0,0.0,-4.905952507970614e-05,-0.00021121533662281643,7.882758561762398e-06,0.0,0.0,0.0,0.0,0.0,0.0,0.0,0.0,0.0,9.977745369963849e-11,3.104998266449139e-10,6.915360090095195e-12,0.0,0.0,0.0,0.0,0.0,0.0,0.0,0.0,0.0
55.217,29,55,217000000,base_footprint,-1.8206717912269968e-06,0.0015896502494193569,0.00010000783406792395,0.999998731502797,0.0,0.0,0.0,0.0,0.0,0.0,0.0,0.0,0.0,-4.9059523506217176e-05,-0.00021121533704361578,7.882760460731023e-06,0.0,0.0,0.0,0.0,0.0,0.0,0.0,0.0,0.0,9.90925017612218e-11,3.084061591458338e-10,7.376680887467436e-12,0.0,0.0,0.0,0.0,0.0,0.0,0.0,0.0,0.0
55.218,30,55,218000000,base_footprint,-1.820674691987748e-06,0.0015896502494167966,0.00010000965944020403,0.9999987315026144,0.0,0.0,0.0,0.0,0.0,0.0,0.0,0.0,0.0,-4.9059521918957975e-05,-0.00021121533747806863,7.882762362498076e-06,0.0,0.0,0.0,0.0,0.0,0.0,0.0,0.0,0.0,9.926446783329427e-11,3.08880469303065e-10,8.919129168369146e-12,0.0,0.0,0.0,0.0,0.0,0.0,0.0,0.0,0.0
55.219,31,55,219000000,base_footprint,-1.8206775927372541e-06,0.0015896502494142345,0.00010001148481260737,0.9999987315024319,0.0,0.0,0.0,0.0,0.0,0.0,0.0,0.0,0.0,-4.9059520301864106e-05,-0.00021121533791444773,7.882764278998484e-06,0.0,0.0,0.0,0.0,0.0,0.0,0.0,0.0,0.0,1.0006593228838498e-10,3.113132433904731e-10,9.033083091791804e-12,0.0,0.0,0.0,0.0,0.0,0.0,0.0,0.0,0.0
55.22,32,55,220000000,base_footprint,-1.8206804934945072e-06,0.0015896502494116634,0.0001000133101851184,0.9999987315022492,0.0,0.0,0.0,0.0,0.0,0.0,0.0,0.0,0.0,-4.905951872314969e-05,-0.00021121533836394572,7.882766164807096e-06,0.0,0.0,0.0,0.0,0.0,0.0,0.0,0.0,0.0,9.842096353563338e-11,3.062815904803075e-10,9.834127743436013e-12,0.0,0.0,0.0,0.0,0.0,0.0,0.0,0.0,0.0
55.221,33,55,221000000,base_footprint,-1.8206833942540134e-06,0.0015896502494090893,0.00010001513555775572,0.9999987315020666,0.0,0.0,0.0,0.0,0.0,0.0,0.0,0.0,0.0,-4.9059517133078966e-05,-0.00021121533880307745,7.882768087483627e-06,0.0,0.0,0.0,0.0,0.0,0.0,0.0,0.0,0.0,1.0038792367832633e-10,3.122731630263974e-10,6.331775428634317e-12,0.0,0.0,0.0,0.0,0.0,0.0,0.0,0.0,0.0
55.222,34,55,222000000,base_footprint,-1.8206862950200956e-06,0.0015896502494065357,0.00010001696093051193,0.9999987315018841,0.0,0.0,0.0,0.0,0.0,0.0,0.0,0.0,0.0,-4.9059515551795386e-05,-0.00021121533919445361,7.882769995557881e-06,0.0,0.0,0.0,0.0,0.0,0.0,0.0,0.0,0.0,9.955273715920152e-11,3.098932925939061e-10,6.593437045601529e-12,0.0,0.0,0.0,0.0,0.0,0.0,0.0,0.0,0.0
55.223,35,55,223000000,base_footprint,-1.8206891957808425e-06,0.00158965024940398,0.0001000187863033928,0.9999987315017016,0.0,0.0,0.0,0.0,0.0,0.0,0.0,0.0,0.0,-4.905951394662976e-05,-0.0002112153396313441,7.882771914948489e-06,0.0,0.0,0.0,0.0,0.0,0.0,0.0,0.0,0.0,1.0022046906026062e-10,3.11763405500707e-10,9.130344846770235e-12,0.0,0.0,0.0,0.0,0.0,0.0,0.0,0.0,0.0
55.224,36,55,224000000,base_footprint,-1.8206920965385333e-06,0.0015896502494014198,0.00010002061167638558,0.999998731501519,0.0,0.0,0.0,0.0,0.0,0.0,0.0,0.0,0.0,-4.90595123460951e-05,-0.0002112153400727435,7.882773808941011e-06,0.0,0.0,0.0,0.0,0.0,0.0,0.0,0.0,0.0,9.88532658665162e-11,3.076407910199301e-10,8.416948913710158e-12,0.0,0.0,0.0,0.0,0.0,0.0,0.0,0.0,0.0
55.225,37,55,225000000,base_footprint,-1.820694997300952e-06,0.0015896502493988655,0.00010002243704949447,0.9999987315013364,0.0,0.0,0.0,0.0,0.0,0.0,0.0,0.0,0.0,-4.905951076114343e-05,-0.00021121534049405727,7.88277571135381e-06,0.0,0.0,0.0,0.0,0.0,0.0,0.0,0.0,0.0,9.927934095525081e-11,3.089817568998112e-10,7.014277689855797e-12,0.0,0.0,0.0,0.0,0.0,0.0,0.0,0.0,0.0
55.226,38,55,226000000,base_footprint,-1.8206978980610493e-06,0.0015896502493963017,0.00010002426242272267,0.9999987315011538,0.0,0.0,0.0,0.0,0.0,0.0,0.0,0.0,0.0,-4.905950916203703e-05,-0.0002112153409451279,7.882777620170914e-06,0.0,0.0,0.0,0.0,0.0,0.0,0.0,0.0,0.0,9.966634350349175e-11,3.1004096814689465e-10,9.961600010696384e-12,0.0,0.0,0.0,0.0,0.0,0.0,0.0,0.0,0.0
55.227,39,55,227000000,base_footprint,-1.8207007988177581e-06,0.001589650249393733,0.0001000260877960705,0.9999987315009712,0.0,0.0,0.0,0.0,0.0,0.0,0.0,0.0,0.0,-4.90595075607878e-05,-0.00021121534138726113,7.882779529561049e-06,0.0,0.0,0.0,0.0,0.0,0.0,0.0,0.0,0.0,9.968705895961553e-11,3.101370073245013e-10,9.445112108668298e-12,0.0,0.0,0.0,0.0,0.0,0.0,0.0,0.0,0.0
55.228,40,55,228000000,base_footprint,-1.8207036995783782e-06,0.0015896502493911652,0.00010002791316953528,0.9999987315007887,0.0,0.0,0.0,0.0,0.0,0.0,0.0,0.0,0.0,-4.905950597424565e-05,-0.00021121534181858838,7.88278143372519e-06,0.0,0.0,0.0,0.0,0.0,0.0,0.0,0.0,0.0,9.939577743352151e-11,3.092677640435306e-10,1.060664525534895e-11,0.0,0.0,0.0,0.0,0.0,0.0,0.0,0.0,0.0
55.229,41,55,229000000,base_footprint,-1.8207066003393409e-06,0.0015896502493885974,0.00010002973854312023,0.9999987315006061,0.0,0.0,0.0,0.0,0.0,0.0,0.0,0.0,0.0,-4.9059504380445354e-05,-0.00021121534225109297,7.882783344307272e-06,0.0,0.0,0.0,0.0,0.0,0.0,0.0,0.0,0.0,9.9738740106093e-11,3.103189485973518e-10,9.0044944882374e-12,0.0,0.0,0.0,0.0,0.0,0.0,0.0,0.0,0.0
55.229,42,55,230000000,base_footprint,-1.8207095011044504e-06,0.0015896502493860313,0.00010003156391682118,0.9999987315004235,0.0,0.0,0.0,0.0,0.0,0.0,0.0,0.0,0.0,-4.9059502794293626e-05,-0.0002112153426792968,7.882785246521246e-06,0.0,0.0,0.0,0.0,0.0,0.0,0.0,0.0,0.0,9.927430782698877e-11,3.089512796288549e-10,6.526305482951217e-12,0.0,0.0,0.0,0.0,0.0,0.0,0.0,0.0,0.0
55.231,43,55,231000000,base_footprint,-1.8207124018629502e-06,0.0015896502493834683,0.00010003338929063741,0.9999987315002409,0.0,0.0,0.0,0.0,0.0,0.0,0.0,0.0,0.0,-4.905950118659322e-05,-0.00021121534310610275,7.882787147125545e-06,0.0,0.0,0.0,0.0,0.0,0.0,0.0,0.0,0.0,9.918756343412153e-11,3.0872317894880636e-10,5.778932902023676e-12,0.0,0.0,0.0,0.0,0.0,0.0,0.0,0.0,0.0
55.231,44,55,232000000,base_footprint,-1.82071530261793e-06,0.001589650249380908,0.00010003521466457247,0.9999987315000582,0.0,0.0,0.0,0.0,0.0,0.0,0.0,0.0,0.0,-4.905949958514761e-05,-0.0002112153435327042,7.88278905486413e-06,0.0,0.0,0.0,0.0,0.0,0.0,0.0,0.0,0.0,9.957527930053343e-11,3.098697220202438e-10,7.207196373032066e-12,0.0,0.0,0.0,0.0,0.0,0.0,0.0,0.0,0.0
55.233,45,55,233000000,base_footprint,-1.820718203374089e-06,0.0015896502493783484,0.00010003704003863089,0.9999987314998756,0.0,0.0,0.0,0.0,0.0,0.0,0.0,0.0,0.0,-4.905949799304517e-05,-0.0002112153439639937,7.882790971802633e-06,0.0,0.0,0.0,0.0,0.0,0.0,0.0,0.0,0.0,1.0007941586529723e-10,3.1134622426905565e-10,8.834623265519209e-12,0.0,0.0,0.0,0.0,0.0,0.0,0.0,0.0,0.0
55.234,46,55,234000000,base_footprint,-1.8207211041338565e-06,0.0015896502493757785,0.00010003886541280832,0.999998731499693,0.0,0.0,0.0,0.0,0.0,0.0,0.0,0.0,0.0,-4.905949640584231e-05,-0.0002112153444173734,7.882792880124434e-06,0.0,0.0,0.0,0.0,0.0,0.0,0.0,0.0,0.0,9.964749034258847e-11,3.0994253400675987e-10,1.2318809062808098e-11,0.0,0.0,0.0,0.0,0.0,0.0,0.0,0.0,0.0
55.235,47,55,235000000,base_footprint,-1.8207240049005807e-06,0.0015896502493732059,0.00010004069078711104,0.9999987314995104,0.0,0.0,0.0,0.0,0.0,0.0,0.0,0.0,0.0,-4.905949482519235e-05,-0.0002112153448547926,7.882794801042296e-06,0.0,0.0,0.0,0.0,0.0,0.0,0.0,0.0,0.0,1.002961453170135e-10,3.119735789334292e-10,8.219335063524242e-12,0.0,0.0,0.0,0.0,0.0,0.0,0.0,0.0,0.0
55.236,48,55,236000000,base_footprint,-1.8207269056649898e-06,0.0015896502493706478,0.00010004251616152937,0.9999987314993278,0.0,0.0,0.0,0.0,0.0,0.0,0.0,0.0,0.0,-4.905949322611066e-05,-0.0002112153452584037,7.882796702306815e-06,0.0,0.0,0.0,0.0,0.0,0.0,0.0,0.0,0.0,9.919492020561436e-11,3.0881704328455293e-10,4.712746752081953e-12,0.0,0.0,0.0,0.0,0.0,0.0,0.0,0.0,0.0
55.236,49,55,237000000,base_footprint,-1.8207298064303494e-06,0.0015896502493680828,0.00010004434153605713,0.9999987314991453,0.0,0.0,0.0,0.0,0.0,0.0,0.0,0.0,0.0,-4.905949163370137e-05,-0.00021121534570510251,7.882798591362088e-06,0.0,0.0,0.0,0.0,0.0,0.0,0.0,0.0,0.0,9.859509476887741e-11,3.068285777283424e-10,9.757792561010468e-12,0.0,0.0,0.0,0.0,0.0,0.0,0.0,0.0,0.0
55.237,50,55,238000000,base_footprint,-1.8207327071906455e-06,0.0015896502493655176,0.00010004616691070909,0.9999987314989627,0.0,0.0,0.0,0.0,0.0,0.0,0.0,0.0,0.0,-4.905949002901878e-05,-0.0002112153461376059,7.882800509918488e-06,0.0,0.0,0.0,0.0,0.0,0.0,0.0,0.0,0.0,1.0017080239290522e-10,3.1162767405866523e-10,9.155744945195359e-12,0.0,0.0,0.0,0.0,0.0,0.0,0.0,0.0,0.0
55.239,51,55,239000000,base_footprint,-1.8207356079514286e-06,0.0015896502493629634,0.00010004799228547688,0.99999873149878,0.0,0.0,0.0,0.0,0.0,0.0,0.0,0.0,0.0,-4.905948843556318e-05,-0.00021121534654784498,7.882802411727902e-06,0.0,0.0,0.0,0.0,0.0,0.0,0.0,0.0,0.0,9.923468510016112e-11,3.088967057678362e-10,6.160660635784745e-12,0.0,0.0,0.0,0.0,0.0,0.0,0.0,0.0,0.0
55.24,52,55,240000000,base_footprint,-1.8207385087073362e-06,0.0015896502493604047,0.00010004981766036485,0.9999987314985974,0.0,0.0,0.0,0.0,0.0,0.0,0.0,0.0,0.0,-4.905948683133612e-05,-0.00021121534698943683,7.882804322205034e-06,0.0,0.0,0.0,0.0,0.0,0.0,0.0,0.0,0.0,9.974495540322613e-11,3.103178090416428e-10,9.311047958925864e-12,0.0,0.0,0.0,0.0,0.0,0.0,0.0,0.0,0.0
55.241,53,55,241000000,base_footprint,-1.8207414094632205e-06,0.001589650249357844,0.00010005164303536583,0.9999987314984148,0.0,0.0,0.0,0.0,0.0,0.0,0.0,0.0,0.0,-4.905948523694492e-05,-0.00021121534742557434,7.882806218417191e-06,0.0,0.0,0.0,0.0,0.0,0.0,0.0,0.0,0.0,9.89670847863357e-11,3.079911545160502e-10,8.624035181490478e-12,0.0,0.0,0.0,0.0,0.0,0.0,0.0,0.0,0.0
55.242,54,55,242000000,base_footprint,-1.8207443102229524e-06,0.001589650249355275,0.000100053468410486,0.9999987314982322,0.0,0.0,0.0,0.0,0.0,0.0,0.0,0.0,0.0,-4.905948365020074e-05,-0.0002112153478748772,7.882808127030768e-06,0.0,0.0,0.0,0.0,0.0,0.0,0.0,0.0,0.0,9.965039005513815e-11,3.0998927966762733e-10,9.683124709292127e-12,0.0,0.0,0.0,0.0,0.0,0.0,0.0,0.0,0.0
55.243,55,55,243000000,base_footprint,-1.8207472109874993e-06,0.0015896502493527107,0.00010005529378572626,0.9999987314980495,0.0,0.0,0.0,0.0,0.0,0.0,0.0,0.0,0.0,-4.9059482065365374e-05,-0.00021121534829830516,7.88281003756346e-06,0.0,0.0,0.0,0.0,0.0,0.0,0.0,0.0,0.0,9.97318232554565e-11,3.1029726797697254e-10,1.1019618080242423e-11,0.0,0.0,0.0,0.0,0.0,0.0,0.0,0.0,0.0
55.244,56,55,244000000,base_footprint,-1.8207501117500292e-06,0.0015896502493501486,0.00010005711916108999,0.9999987314978669,0.0,0.0,0.0,0.0,0.0,0.0,0.0,0.0,0.0,-4.905948046682342e-05,-0.0002112153487261381,7.8828119545555e-06,0.0,0.0,0.0,0.0,0.0,0.0,0.0,0.0,0.0,1.0006903545317294e-10,3.1136460404281186e-10,5.383968790281783e-12,0.0,0.0,0.0,0.0,0.0,0.0,0.0,0.0,0.0
55.245,57,55,245000000,base_footprint,-1.8207530125230318e-06,0.0015896502493475933,0.00010005894453657573,0.9999987314976843,0.0,0.0,0.0,0.0,0.0,0.0,0.0,0.0,0.0,-4.905947889332469e-05,-0.00021121534914466975,7.882813868845466e-06,0.0,0.0,0.0,0.0,0.0,0.0,0.0,0.0,0.0,9.991188581717432e-11,3.1088872488214037e-10,6.0871385017281695e-12,0.0,0.0,0.0,0.0,0.0,0.0,0.0,0.0,0.0
55.246,58,55,246000000,base_footprint,-1.8207559132916155e-06,0.0015896502493450318,0.00010006076991217876,0.9999987314975015,0.0,0.0,0.0,0.0,0.0,0.0,0.0,0.0,0.0,-4.905947728999095e-05,-0.00021121534958938484,7.882815773629846e-06,0.0,0.0,0.0,0.0,0.0,0.0,0.0,0.0,0.0,9.944259370218075e-11,3.0939378000232943e-10,9.677600942366301e-12,0.0,0.0,0.0,0.0,0.0,0.0,0.0,0.0,0.0
55.247,59,55,247000000,base_footprint,-1.82075881404476e-06,0.001589650249342471,0.0001000625952878966,0.9999987314973188,0.0,0.0,0.0,0.0,0.0,0.0,0.0,0.0,0.0,-4.905947566461296e-05,-0.00021121535002061512,7.882817673249949e-06,0.0,0.0,0.0,0.0,0.0,0.0,0.0,0.0,0.0,9.915305625898476e-11,3.0859078509124914e-10,9.342142448005559e-12,0.0,0.0,0.0,0.0,0.0,0.0,0.0,0.0,0.0
55.248,60,55,248000000,base_footprint,-1.8207617148050091e-06,0.001589650249339897,0.00010006442066372111,0.9999987314971361,0.0,0.0,0.0,0.0,0.0,0.0,0.0,0.0,0.0,-4.9059474084598055e-05,-0.00021121535047938445,7.882819556843976e-06,0.0,0.0,0.0,0.0,0.0,0.0,0.0,0.0,0.0,9.831489305959045e-11,3.059247783762095e-10,1.1058834884237286e-11,0.0,0.0,0.0,0.0,0.0,0.0,0.0,0.0,0.0
55.249,61,55,249000000,base_footprint,-1.8207646155639385e-06,0.0015896502493373285,0.00010006624603967548,0.9999987314969535,0.0,0.0,0.0,0.0,0.0,0.0,0.0,0.0,0.0,-4.9059472487349375e-05,-0.00021121535090113725,7.88282148671579e-06,0.0,0.0,0.0,0.0,0.0,0.0,0.0,0.0,0.0,1.0075727788134379e-10,3.134499817358137e-10,5.666119386558892e-12,0.0,0.0,0.0,0.0,0.0,0.0,0.0,0.0,0.0
55.249,62,55,250000000,base_footprint,-1.8207675163271204e-06,0.0015896502493347722,0.00010006807141575075,0.9999987314967709,0.0,0.0,0.0,0.0,0.0,0.0,0.0,0.0,0.0,-4.9059470901442717e-05,-0.00021121535130945963,7.882823398755518e-06,0.0,0.0,0.0,0.0,0.0,0.0,0.0,0.0,0.0,9.978996007889959e-11,3.105427868839274e-10,8.358298776249164e-12,0.0,0.0,0.0,0.0,0.0,0.0,0.0,0.0,0.0
55.251,63,55,251000000,base_footprint,-1.820770417093816e-06,0.0015896502493322137,0.00010006989679194614,0.9999987314965882,0.0,0.0,0.0,0.0,0.0,0.0,0.0,0.0,0.0,-4.9059469313963376e-05,-0.0002112153517458864,7.882825309255095e-06,0.0,0.0,0.0,0.0,0.0,0.0,0.0,0.0,0.0,9.97374925062413e-11,3.102958041972377e-10,9.067518036968467e-12,0.0,0.0,0.0,0.0,0.0,0.0,0.0,0.0,0.0
55.252,64,55,252000000,base_footprint,-1.8207733178602461e-06,0.0015896502493296613,0.00010007172216826444,0.9999987314964056,0.0,0.0,0.0,0.0,0.0,0.0,0.0,0.0,0.0,-4.9059467718937554e-05,-0.00021121535216625872,7.882827225181972e-06,0.0,0.0,0.0,0.0,0.0,0.0,0.0,0.0,0.0,1.0000414184410466e-10,3.1118673329943083e-10,5.620749892380527e-12,0.0,0.0,0.0,0.0,0.0,0.0,0.0,0.0,0.0
55.253,65,55,253000000,base_footprint,-1.8207762186312692e-06,0.0015896502493271021,0.00010007354754468722,0.9999987314962228,0.0,0.0,0.0,0.0,0.0,0.0,0.0,0.0,0.0,-4.905946613384608e-05,-0.0002112153526115248,7.882829104426633e-06,0.0,0.0,0.0,0.0,0.0,0.0,0.0,0.0,0.0,9.805604609322945e-11,3.0522764069142856e-10,7.338354987027584e-12,0.0,0.0,0.0,0.0,0.0,0.0,0.0,0.0,0.0
55.254,66,55,254000000,base_footprint,-1.8207791193894704e-06,0.001589650249324539,0.00010007537292122742,0.9999987314960401,0.0,0.0,0.0,0.0,0.0,0.0,0.0,0.0,0.0,-4.9059464513666416e-05,-0.00021121535305261837,7.882831009286004e-06,0.0,0.0,0.0,0.0,0.0,0.0,0.0,0.0,0.0,9.94568705195935e-11,3.0943201538590676e-10,1.332616484404475e-11,0.0,0.0,0.0,0.0,0.0,0.0,0.0,0.0,0.0
55.255,67,55,255000000,base_footprint,-1.8207820201524145e-06,0.001589650249321971,0.00010007719829789083,0.9999987314958575,0.0,0.0,0.0,0.0,0.0,0.0,0.0,0.0,0.0,-4.905946292869875e-05,-0.00021121535349504,7.882832925989863e-06,0.0,0.0,0.0,0.0,0.0,0.0,0.0,0.0,0.0,1.0007465726783863e-10,3.1129738940203724e-10,8.222399999918634e-12,0.0,0.0,0.0,0.0,0.0,0.0,0.0,0.0,0.0
55.256,68,55,256000000,base_footprint,-1.8207849209194218e-06,0.0015896502493193963,0.00010007902367467767,0.9999987314956749,0.0,0.0,0.0,0.0,0.0,0.0,0.0,0.0,0.0,-4.905946134237167e-05,-0.00021121535394127186,7.882834843126606e-06,0.0,0.0,0.0,0.0,0.0,0.0,0.0,0.0,0.0,1.0010683853215056e-10,3.113693965991582e-10,9.637655947432128e-12,0.0,0.0,0.0,0.0,0.0,0.0,0.0,0.0,0.0
55.257,69,55,257000000,base_footprint,-1.8207878216872097e-06,0.0015896502493168221,0.00010008084905157631,0.9999987314954921,0.0,0.0,0.0,0.0,0.0,0.0,0.0,0.0,0.0,-4.905945974947947e-05,-0.00021121535437168123,7.88283673697649e-06,0.0,0.0,0.0,0.0,0.0,0.0,0.0,0.0,0.0,9.883434832428617e-11,3.0760620128066653e-10,8.874741219480654e-12,0.0,0.0,0.0,0.0,0.0,0.0,0.0,0.0,0.0
55.258,70,55,258000000,base_footprint,-1.8207907224546314e-06,0.0015896502493142558,0.00010008267442860051,0.9999987314953094,0.0,0.0,0.0,0.0,0.0,0.0,0.0,0.0,0.0,-4.9059458154241615e-05,-0.0002112153547885751,7.882838658219604e-06,0.0,0.0,0.0,0.0,0.0,0.0,0.0,0.0,0.0,1.002875471187501e-10,3.120487235237144e-10,5.838265831384412e-12,0.0,0.0,0.0,0.0,0.0,0.0,0.0,0.0,0.0
55.259,71,55,259000000,base_footprint,-1.8207936232242306e-06,0.0015896502493116895,0.00010008449980573787,0.9999987314951266,0.0,0.0,0.0,0.0,0.0,0.0,0.0,0.0,0.0,-4.905945656418804e-05,-0.00021121535522118602,7.882840554712348e-06,0.0,0.0,0.0,0.0,0.0,0.0,0.0,0.0,0.0,9.897373029942381e-11,3.0802990159611695e-10,7.279311742529657e-12,0.0,0.0,0.0,0.0,0.0,0.0,0.0,0.0,0.0
55.26,72,55,260000000,base_footprint,-1.8207965239819757e-06,0.0015896502493091273,0.00010008632518299043,0.999998731494944,0.0,0.0,0.0,0.0,0.0,0.0,0.0,0.0,0.0,-4.9059454946030513e-05,-0.00021121535564618015,7.882842455099425e-06,0.0,0.0,0.0,0.0,0.0,0.0,0.0,0.0,0.0,9.918393157413464e-11,3.087040513838297e-10,8.418861303857245e-12,0.0,0.0,0.0,0.0,0.0,0.0,0.0,0.0,0.0
55.261,73,55,261000000,base_footprint,-1.820799424744317e-06,0.0015896502493065626,0.00010008815056036579,0.9999987314947614,0.0,0.0,0.0,0.0,0.0,0.0,0.0,0.0,0.0,-4.905945336080538e-05,-0.0002112153560837487,7.882844370992014e-06,0.0,0.0,0.0,0.0,0.0,0.0,0.0,0.0,0.0,1.0003433355349338e-10,3.1116638163409357e-10,1.0839988930776494e-11,0.0,0.0,0.0,0.0,0.0,0.0,0.0,0.0,0.0
55.262,74,55,262000000,base_footprint,-1.8208023255021432e-06,0.001589650249303995,0.00010008997593786704,0.9999987314945786,0.0,0.0,0.0,0.0,0.0,0.0,0.0,0.0,0.0,-4.90594517572153e-05,-0.000211215356521613,7.882846292929708e-06,0.0,0.0,0.0,0.0,0.0,0.0,0.0,0.0,0.0,1.0035351603200087e-10,3.1217371024619904e-10,7.609799968261616e-12,0.0,0.0,0.0,0.0,0.0,0.0,0.0,0.0,0.0
55.263,75,55,263000000,base_footprint,-1.8208052262762512e-06,0.0015896502493014336,0.00010009180131548573,0.9999987314943959,0.0,0.0,0.0,0.0,0.0,0.0,0.0,0.0,0.0,-4.90594501954e-05,-0.00021121535694113694,7.882848198144665e-06,0.0,0.0,0.0,0.0,0.0,0.0,0.0,0.0,0.0,9.941617338988565e-11,3.0940048506411045e-10,4.361110000292825e-12,0.0,0.0,0.0,0.0,0.0,0.0,0.0,0.0,0.0
55.264,76,55,264000000,base_footprint,-1.8208081270470596e-06,0.001589650249298874,0.00010009362669322007,0.9999987314942131,0.0,0.0,0.0,0.0,0.0,0.0,0.0,0.0,0.0,-4.905944859428688e-05,-0.00021121535737042246,7.882850099623994e-06,0.0,0.0,0.0,0.0,0.0,0.0,0.0,0.0,0.0,9.92456125722746e-11,3.088549467566475e-10,8.80695323048488e-12,0.0,0.0,0.0,0.0,0.0,0.0,0.0,0.0,0.0
55.266,77,55,265000000,base_footprint,-1.8208110278092469e-06,0.0015896502492963108,0.00010009545207106945,0.9999987314940304,0.0,0.0,0.0,0.0,0.0,0.0,0.0,0.0,0.0,-4.905944698261214e-05,-0.00021121535781035343,7.882851999761613e-06,0.0,0.0,0.0,0.0,0.0,0.0,0.0,0.0,0.0,9.918937703693906e-11,3.0865369354926777e-10,9.957734632372479e-12,0.0,0.0,0.0,0.0,0.0,0.0,0.0,0.0,0.0
55.266,78,55,266000000,base_footprint,-1.8208139285753866e-06,0.0015896502492937523,0.00010009727744903455,0.9999987314938479,0.0,0.0,0.0,0.0,0.0,0.0,0.0,0.0,0.0,-4.9059445396153186e-05,-0.00021121535823389503,7.882853901377299e-06,0.0,0.0,0.0,0.0,0.0,0.0,0.0,0.0,0.0,9.92407164961854e-11,3.0885481162344126e-10,7.599236004960534e-12,0.0,0.0,0.0,0.0,0.0,0.0,0.0,0.0,0.0
55.267,79,55,267000000,base_footprint,-1.82081682933918e-06,0.0015896502492911953,0.00010009910282711949,0.9999987314936651,0.0,0.0,0.0,0.0,0.0,0.0,0.0,0.0,0.0,-4.905944379700867e-05,-0.0002112153586626083,7.882855811271225e-06,0.0,0.0,0.0,0.0,0.0,0.0,0.0,0.0,0.0,9.969474893319448e-11,3.1021553357398953e-10,7.767641783442927e-12,0.0,0.0,0.0,0.0,0.0,0.0,0.0,0.0,0.0
55.268,80,55,268000000,base_footprint,-1.8208197301048578e-06,0.0015896502492886322,0.0001001009282053246,0.9999987314934824,0.0,0.0,0.0,0.0,0.0,0.0,0.0,0.0,0.0,-4.905944220627458e-05,-0.0002112153591070275,7.88285772180456e-06,0.0,0.0,0.0,0.0,0.0,0.0,0.0,0.0,0.0,9.974787897666922e-11,3.103062377906175e-10,9.07905882931148e-12,0.0,0.0,0.0,0.0,0.0,0.0,0.0,0.0,0.0
55.268,81,55,269000000,base_footprint,-1.8208226308759148e-06,0.0015896502492860612,0.00010010275358364241,0.9999987314932997,0.0,0.0,0.0,0.0,0.0,0.0,0.0,0.0,0.0,-4.905944062264245e-05,-0.0002112153595557094,7.882859617536194e-06,0.0,0.0,0.0,0.0,0.0,0.0,0.0,0.0,0.0,9.895648011990576e-11,3.078970032289629e-10,1.0111785028484067e-11,0.0,0.0,0.0,0.0,0.0,0.0,0.0,0.0,0.0
55.268,82,55,270000000,base_footprint,-1.8208255316466694e-06,0.0015896502492834968,0.00010010457896207817,0.9999987314931169,0.0,0.0,0.0,0.0,0.0,0.0,0.0,0.0,0.0,-4.905943902755404e-05,-0.0002112153599746125,7.88286152363931e-06,0.0,0.0,0.0,0.0,0.0,0.0,0.0,0.0,0.0,9.948749478339253e-11,3.095952610419449e-10,1.0229678142496837e-11,0.0,0.0,0.0,0.0,0.0,0.0,0.0,0.0,0.0
55.268,83,55,271000000,base_footprint,-1.8208284324183951e-06,0.0015896502492809262,0.00010010640434063498,0.9999987314929342,0.0,0.0,0.0,0.0,0.0,0.0,0.0,0.0,0.0,-4.905943743504992e-05,-0.00021121536041965127,7.882863436000024e-06,0.0,0.0,0.0,0.0,0.0,0.0,0.0,0.0,0.0,9.984917079213408e-11,3.1060498163059865e-10,9.648344416102912e-12,0.0,0.0,0.0,0.0,0.0,0.0,0.0,0.0,0.0
55.272,84,55,272000000,base_footprint,-1.8208313331880613e-06,0.0015896502492783646,0.00010010822971931196,0.9999987314927514,0.0,0.0,0.0,0.0,0.0,0.0,0.0,0.0,0.0,-4.9059435836433064e-05,-0.0002112153608337264,7.882865346399655e-06,0.0,0.0,0.0,0.0,0.0,0.0,0.0,0.0,0.0,9.969818000372359e-11,3.1029653928208705e-10,4.886294490566121e-12,0.0,0.0,0.0,0.0,0.0,0.0,0.0,0.0,0.0
55.273,85,55,273000000,base_footprint,-1.820834233957241e-06,0.0015896502492758063,0.00010011005509811084,0.9999987314925687,0.0,0.0,0.0,0.0,0.0,0.0,0.0,0.0,0.0,-4.905943424097959e-05,-0.00021121536126000108,7.882867260347342e-06,0.0,0.0,0.0,0.0,0.0,0.0,0.0,0.0,0.0,9.990960937887061e-11,3.1086669915017363e-10,7.573445337831712e-12,0.0,0.0,0.0,0.0,0.0,0.0,0.0,0.0,0.0
55.274,86,55,274000000,base_footprint,-1.8208371347120216e-06,0.001589650249273245,0.0001001118804770249,0.9999987314923859,0.0,0.0,0.0,0.0,0.0,0.0,0.0,0.0,0.0,-4.9059432617681125e-05,-0.00021121536169843428,7.882869160681527e-06,0.0,0.0,0.0,0.0,0.0,0.0,0.0,0.0,0.0,9.919319453117892e-11,3.0870306820363575e-10,7.612831839244033e-12,0.0,0.0,0.0,0.0,0.0,0.0,0.0,0.0,0.0
55.275,87,55,275000000,base_footprint,-1.8208400354778448e-06,0.0015896502492706752,0.00010011370585605744,0.9999987314922032,0.0,0.0,0.0,0.0,0.0,0.0,0.0,0.0,0.0,-4.905943104550837e-05,-0.00021121536214811177,7.88287106806753e-06,0.0,0.0,0.0,0.0,0.0,0.0,0.0,0.0,0.0,9.958873563488537e-11,3.0976823157744256e-10,1.1817563918791532e-11,0.0,0.0,0.0,0.0,0.0,0.0,0.0,0.0,0.0
55.276,88,55,276000000,base_footprint,-1.8208429362551036e-06,0.0015896502492681035,0.00010011553123520646,0.9999987314920205,0.0,0.0,0.0,0.0,0.0,0.0,0.0,0.0,0.0,-4.9059429473849854e-05,-0.00021121536258427798,7.882872971413409e-06,0.0,0.0,0.0,0.0,0.0,0.0,0.0,0.0,0.0,9.934580985959455e-11,3.091125638471101e-10,8.10595763743783e-12,0.0,0.0,0.0,0.0,0.0,0.0,0.0,0.0,0.0
55.277,89,55,277000000,base_footprint,-1.8208458370226202e-06,0.0015896502492655415,0.00010011735661447848,0.9999987314918377,0.0,0.0,0.0,0.0,0.0,0.0,0.0,0.0,0.0,-4.905942785979744e-05,-0.00021121536299710628,7.882874887376162e-06,0.0,0.0,0.0,0.0,0.0,0.0,0.0,0.0,0.0,1.0000219372093383e-10,3.1122157183254234e-10,5.813195939844573e-12,0.0,0.0,0.0,0.0,0.0,0.0,0.0,0.0,0.0
55.278,90,55,278000000,base_footprint,-1.8208487377961956e-06,0.001589650249262982,0.00010011918199386367,0.999998731491655,0.0,0.0,0.0,0.0,0.0,0.0,0.0,0.0,0.0,-4.9059426277579627e-05,-0.0002112153634250043,7.882876784026013e-06,0.0,0.0,0.0,0.0,0.0,0.0,0.0,0.0,0.0,9.898033175991145e-11,3.0804363117839813e-10,8.708811645097784e-12,0.0,0.0,0.0,0.0,0.0,0.0,0.0,0.0,0.0
55.279,91,55,279000000,base_footprint,-1.8208516385660115e-06,0.0015896502492604178,0.00010012100737336338,0.9999987314914722,0.0,0.0,0.0,0.0,0.0,0.0,0.0,0.0,0.0,-4.905942467557169e-05,-0.0002112153638664815,7.882878683178623e-06,0.0,0.0,0.0,0.0,0.0,0.0,0.0,0.0,0.0,9.913192077161846e-11,3.084794364779462e-10,8.661164934002868e-12,0.0,0.0,0.0,0.0,0.0,0.0,0.0,0.0,0.0
55.28,92,55,280000000,base_footprint,-1.8208545393306871e-06,0.0015896502492578589,0.00010012283275297788,0.9999987314912895,0.0,0.0,0.0,0.0,0.0,0.0,0.0,0.0,0.0,-4.905942307084596e-05,-0.00021121536428840416,7.88288058285191e-06,0.0,0.0,0.0,0.0,0.0,0.0,0.0,0.0,0.0,9.913675542262383e-11,3.0856789555095366e-10,7.377935242732249e-12,0.0,0.0,0.0,0.0,0.0,0.0,0.0,0.0,0.0
55.281,93,55,281000000,base_footprint,-1.820857440097214e-06,0.0015896502492552978,0.00010012465813271951,0.9999987314911067,0.0,0.0,0.0,0.0,0.0,0.0,0.0,0.0,0.0,-4.9059421480102195e-05,-0.00021121536472530156,7.882882507328074e-06,0.0,0.0,0.0,0.0,0.0,0.0,0.0,0.0,0.0,1.0048988834118171e-10,3.1256554368523673e-10,8.514935666411594e-12,0.0,0.0,0.0,0.0,0.0,0.0,0.0,0.0,0.0
55.282,94,55,282000000,base_footprint,-1.8208603408640618e-06,0.0015896502492527367,0.00010012648351257902,0.9999987314909239,0.0,0.0,0.0,0.0,0.0,0.0,0.0,0.0,0.0,-4.9059419886264625e-05,-0.000211215365157391,7.8828844133325e-06,0.0,0.0,0.0,0.0,0.0,0.0,0.0,0.0,0.0,9.949086211892403e-11,3.09577104191432e-10,8.758404458024352e-12,0.0,0.0,0.0,0.0,0.0,0.0,0.0,0.0,0.0
55.283,95,55,283000000,base_footprint,-1.820863241642215e-06,0.0015896502492501784,0.00010012830889256844,0.999998731490741,0.0,0.0,0.0,0.0,0.0,0.0,0.0,0.0,0.0,-4.905941831440209e-05,-0.00021121536558405348,7.88288634348123e-06,0.0,0.0,0.0,0.0,0.0,0.0,0.0,0.0,0.0,1.0078125418831583e-10,3.1345593811941044e-10,8.243726375020622e-12,0.0,0.0,0.0,0.0,0.0,0.0,0.0,0.0,0.0
55.284,96,55,284000000,base_footprint,-1.8208661424102754e-06,0.0015896502492476117,0.00010013013427266467,0.9999987314905583,0.0,0.0,0.0,0.0,0.0,0.0,0.0,0.0,0.0,-4.905941669976175e-05,-0.00021121536603384945,7.882888227209028e-06,0.0,0.0,0.0,0.0,0.0,0.0,0.0,0.0,0.0,9.832293828909423e-11,3.05998934641165e-10,1.2230444331109094e-11,0.0,0.0,0.0,0.0,0.0,0.0,0.0,0.0,0.0
55.285,97,55,285000000,base_footprint,-1.8208690431831322e-06,0.00158965024924504,0.00010013195965287834,0.9999987314903755,0.0,0.0,0.0,0.0,0.0,0.0,0.0,0.0,0.0,-4.905941511494167e-05,-0.0002112153664765667,7.882890132365091e-06,0.0,0.0,0.0,0.0,0.0,0.0,0.0,0.0,0.0,9.945097376531853e-11,3.0942625831913454e-10,7.872612237054111e-12,0.0,0.0,0.0,0.0,0.0,0.0,0.0,0.0,0.0
55.286,98,55,286000000,base_footprint,-1.820871943958874e-06,0.0015896502492424725,0.00010013378503320974,0.9999987314901928,0.0,0.0,0.0,0.0,0.0,0.0,0.0,0.0,0.0,-4.905941352627425e-05,-0.00021121536689989176,7.882892037964207e-06,0.0,0.0,0.0,0.0,0.0,0.0,0.0,0.0,0.0,9.945009297306068e-11,3.0950361101143935e-10,5.889842878522456e-12,0.0,0.0,0.0,0.0,0.0,0.0,0.0,0.0,0.0
55.287,99,55,287000000,base_footprint,-1.8208748447243517e-06,0.0015896502492399095,0.00010013561041366512,0.9999987314900101,0.0,0.0,0.0,0.0,0.0,0.0,0.0,0.0,0.0,-4.905941191113266e-05,-0.00021121536732380286,7.882893955989212e-06,0.0,0.0,0.0,0.0,0.0,0.0,0.0,0.0,0.0,1.0013314535835737e-10,3.1155733625626244e-10,8.459139380262142e-12,0.0,0.0,0.0,0.0,0.0,0.0,0.0,0.0,0.0
55.288,100,55,288000000,base_footprint,-1.820877745485419e-06,0.0015896502492373512,0.00010013743579423869,0.9999987314898273,0.0,0.0,0.0,0.0,0.0,0.0,0.0,0.0,0.0,-4.9059410307895684e-05,-0.00021121536774687684,7.882895862447453e-06,0.0,0.0,0.0,0.0,0.0,0.0,0.0,0.0,0.0,9.950646583813238e-11,3.096649428315394e-10,8.3242174067526e-12,0.0,0.0,0.0,0.0,0.0,0.0,0.0,0.0,0.0
55.289,101,55,289000000,base_footprint,-1.820880646255692e-06,0.0015896502492347866,0.00010013926117493159,0.9999987314896444,0.0,0.0,0.0,0.0,0.0,0.0,0.0,0.0,0.0,-4.905940873197343e-05,-0.00021121536819106098,7.8828977715551e-06,0.0,0.0,0.0,0.0,0.0,0.0,0.0,0.0,0.0,9.967309451173962e-11,3.100527636254095e-10,1.0654725778303551e-11,0.0,0.0,0.0,0.0,0.0,0.0,0.0,0.0,0.0
55.29,102,55,290000000,base_footprint,-1.8208835470301287e-06,0.0015896502492322208,0.00010014108655573552,0.9999987314894616,0.0,0.0,0.0,0.0,0.0,0.0,0.0,0.0,0.0,-4.905940714584601e-05,-0.00021121536862682438,7.882899663755454e-06,0.0,0.0,0.0,0.0,0.0,0.0,0.0,0.0,0.0,9.874082787912386e-11,3.073285583483566e-10,6.105478518831976e-12,0.0,0.0,0.0,0.0,0.0,0.0,0.0,0.0,0.0
55.291,103,55,291000000,base_footprint,-1.8208864478028615e-06,0.0015896502492296614,0.00010014291193665907,0.9999987314892789,0.0,0.0,0.0,0.0,0.0,0.0,0.0,0.0,0.0,-4.90594055478692e-05,-0.0002112153690462775,7.882901573162824e-06,0.0,0.0,0.0,0.0,0.0,0.0,0.0,0.0,0.0,9.965822669301983e-11,3.1013520376704223e-10,7.670653783015365e-12,0.0,0.0,0.0,0.0,0.0,0.0,0.0,0.0,0.0
55.292,104,55,292000000,base_footprint,-1.8208893485648834e-06,0.0015896502492271031,0.00010014473731770629,0.999998731489096,0.0,0.0,0.0,0.0,0.0,0.0,0.0,0.0,0.0,-4.905940393197395e-05,-0.00021121536947690055,7.88290349050785e-06,0.0,0.0,0.0,0.0,0.0,0.0,0.0,0.0,0.0,1.0010590761100586e-10,3.114482729711518e-10,9.245730951028628e-12,0.0,0.0,0.0,0.0,0.0,0.0,0.0,0.0,0.0
55.293,105,55,293000000,base_footprint,-1.8208922493330446e-06,0.0015896502492245472,0.00010014656269887248,0.9999987314889132,0.0,0.0,0.0,0.0,0.0,0.0,0.0,0.0,0.0,-4.905940234987606e-05,-0.00021121536990445898,7.882905398698297e-06,0.0,0.0,0.0,0.0,0.0,0.0,0.0,0.0,0.0,9.959483822849376e-11,3.0991332730621366e-10,6.433178941007782e-12,0.0,0.0,0.0,0.0,0.0,0.0,0.0,0.0,0.0
55.295,106,55,294000000,base_footprint,-1.8208951501137787e-06,0.001589650249221992,0.00010014838808016665,0.9999987314887303,0.0,0.0,0.0,0.0,0.0,0.0,0.0,0.0,0.0,-4.905940078053309e-05,-0.00021121537033576537,7.882907325027893e-06,0.0,0.0,0.0,0.0,0.0,0.0,0.0,0.0,0.0,1.0057556217503735e-10,3.1283329388055956e-10,6.982378605607013e-12,0.0,0.0,0.0,0.0,0.0,0.0,0.0,0.0,0.0
55.295,107,55,295000000,base_footprint,-1.8208980508915948e-06,0.0015896502492194343,0.0001001502134615781,0.9999987314885477,0.0,0.0,0.0,0.0,0.0,0.0,0.0,0.0,0.0,-4.9059399180173785e-05,-0.0002112153707737893,7.882909229709911e-06,0.0,0.0,0.0,0.0,0.0,0.0,0.0,0.0,0.0,9.943370261921323e-11,3.0937272591694545e-10,1.096766003959321e-11,0.0,0.0,0.0,0.0,0.0,0.0,0.0,0.0,0.0
55.296,108,55,296000000,base_footprint,-1.8209009516619278e-06,0.0015896502492168693,0.00010015203884309618,0.9999987314883648,0.0,0.0,0.0,0.0,0.0,0.0,0.0,0.0,0.0,-4.9059397570804185e-05,-0.0002112153712201805,7.882911113133607e-06,0.0,0.0,0.0,0.0,0.0,0.0,0.0,0.0,0.0,9.829794539054789e-11,3.059418921736466e-10,1.1010654840120855e-11,0.0,0.0,0.0,0.0,0.0,0.0,0.0,0.0,0.0
55.297,109,55,297000000,base_footprint,-1.8209038524327676e-06,0.001589650249214292,0.00010015386422474064,0.999998731488182,0.0,0.0,0.0,0.0,0.0,0.0,0.0,0.0,0.0,-4.905939597730013e-05,-0.00021121537167748344,7.882913036153097e-06,0.0,0.0,0.0,0.0,0.0,0.0,0.0,0.0,0.0,1.0043685466579814e-10,3.1233405788796474e-10,1.0087626361688635e-11,0.0,0.0,0.0,0.0,0.0,0.0,0.0,0.0,0.0
55.298,110,55,298000000,base_footprint,-1.8209067532026046e-06,0.0015896502492117163,0.00010015568960649828,0.9999987314879991,0.0,0.0,0.0,0.0,0.0,0.0,0.0,0.0,0.0,-4.90593943809276e-05,-0.00021121537210623575,7.882914932721262e-06,0.0,0.0,0.0,0.0,0.0,0.0,0.0,0.0,0.0,9.898242114370757e-11,3.080518740358147e-10,9.707678631647934e-12,0.0,0.0,0.0,0.0,0.0,0.0,0.0,0.0,0.0
55.299,111,55,299000000,base_footprint,-1.8209096539826073e-06,0.0015896502492091461,0.00010015751498836534,0.9999987314878163,0.0,0.0,0.0,0.0,0.0,0.0,0.0,0.0,0.0,-4.9059392806891485e-05,-0.00021121537252788284,7.88291682182353e-06,0.0,0.0,0.0,0.0,0.0,0.0,0.0,0.0,0.0,9.854978818384064e-11,3.068083243687776e-10,3.743565566521252e-12,0.0,0.0,0.0,0.0,0.0,0.0,0.0,0.0,0.0
55.299,112,55,300000000,base_footprint,-1.820912554763012e-06,0.0015896502492065833,0.0001001593403703513,0.9999987314876334,0.0,0.0,0.0,0.0,0.0,0.0,0.0,0.0,0.0,-4.905939121319498e-05,-0.00021121537294552513,7.882918729827026e-06,0.0,0.0,0.0,0.0,0.0,0.0,0.0,0.0,0.0,9.958058437742113e-11,3.0990100118446726e-10,7.770892578011466e-12,0.0,0.0,0.0,0.0,0.0,0.0,0.0,0.0,0.0
55.301,113,55,301000000,base_footprint,-1.8209154555341486e-06,0.0015896502492040217,0.00010016116575246318,0.9999987314874508,0.0,0.0,0.0,0.0,0.0,0.0,0.0,0.0,0.0,-4.905938960009859e-05,-0.00021121537337643974,7.88292065165499e-06,0.0,0.0,0.0,0.0,0.0,0.0,0.0,0.0,0.0,1.0034747963524508e-10,3.1217044780797614e-10,9.31588753495111e-12,0.0,0.0,0.0,0.0,0.0,0.0,0.0,0.0,0.0
55.302,114,55,302000000,base_footprint,-1.820918356308901e-06,0.0015896502492014658,0.00010016299113469734,0.9999987314872677,0.0,0.0,0.0,0.0,0.0,0.0,0.0,0.0,0.0,-4.905938801289698e-05,-0.0002112153737958149,7.882922566545888e-06,0.0,0.0,0.0,0.0,0.0,0.0,0.0,0.0,0.0,9.995084624002364e-11,3.1100684848225093e-10,7.158665133186085e-12,0.0,0.0,0.0,0.0,0.0,0.0,0.0,0.0,0.0
55.303,115,55,303000000,base_footprint,-1.8209212570727596e-06,0.0015896502491989017,0.00010016481651704835,0.9999987314870848,0.0,0.0,0.0,0.0,0.0,0.0,0.0,0.0,0.0,-4.905938639662659e-05,-0.00021121537424567116,7.882924470293513e-06,0.0,0.0,0.0,0.0,0.0,0.0,0.0,0.0,0.0,9.939993706351479e-11,3.092455211444443e-10,1.1583746890893254e-11,0.0,0.0,0.0,0.0,0.0,0.0,0.0,0.0,0.0
55.304,116,55,304000000,base_footprint,-1.8209241578501308e-06,0.0015896502491963352,0.00010016664189951416,0.9999987314869021,0.0,0.0,0.0,0.0,0.0,0.0,0.0,0.0,0.0,-4.905938482933064e-05,-0.00021121537468331704,7.882926370240778e-06,0.0,0.0,0.0,0.0,0.0,0.0,0.0,0.0,0.0,9.915650512529637e-11,3.0855532991306657e-10,6.0229584421903826e-12,0.0,0.0,0.0,0.0,0.0,0.0,0.0,0.0,0.0
55.305,117,55,305000000,base_footprint,-1.8209270586277993e-06,0.0015896502491937745,0.00010016846728209944,0.9999987314867194,0.0,0.0,0.0,0.0,0.0,0.0,0.0,0.0,0.0,-4.905938323535444e-05,-0.0002112153751039717,7.882928279311083e-06,0.0,0.0,0.0,0.0,0.0,0.0,0.0,0.0,0.0,9.964137302089429e-11,3.1007426857422284e-10,7.834395807323195e-12,0.0,0.0,0.0,0.0,0.0,0.0,0.0,0.0,0.0
55.306,118,55,306000000,base_footprint,-1.8209299594009618e-06,0.0015896502491912095,0.00010017029266480985,0.9999987314865365,0.0,0.0,0.0,0.0,0.0,0.0,0.0,0.0,0.0,-4.905938163180493e-05,-0.00021121537554473922,7.882930199802618e-06,0.0,0.0,0.0,0.0,0.0,0.0,0.0,0.0,0.0,1.0028683125575633e-10,3.1193935256441924e-10,1.029098044409447e-11,0.0,0.0,0.0,0.0,0.0,0.0,0.0,0.0,0.0
55.307,119,55,307000000,base_footprint,-1.8209328601656955e-06,0.0015896502491886397,0.00010017211804763647,0.9999987314863537,0.0,0.0,0.0,0.0,0.0,0.0,0.0,0.0,0.0,-4.905938002046619e-05,-0.0002112153759866846,7.882932102311087e-06,0.0,0.0,0.0,0.0,0.0,0.0,0.0,0.0,0.0,9.931200828540973e-11,3.090371986236485e-10,7.701615178501639e-12,0.0,0.0,0.0,0.0,0.0,0.0,0.0,0.0,0.0
55.308,120,55,308000000,base_footprint,-1.8209357609374265e-06,0.0015896502491860797,0.00010017394343058378,0.9999987314861708,0.0,0.0,0.0,0.0,0.0,0.0,0.0,0.0,0.0,-4.90593784400701e-05,-0.00021121537639944346,7.882934013906423e-06,0.0,0.0,0.0,0.0,0.0,0.0,0.0,0.0,0.0,9.976383543722059e-11,3.10462730261839e-10,6.7762383738893385e-12,0.0,0.0,0.0,0.0,0.0,0.0,0.0,0.0,0.0
55.309,121,55,309000000,base_footprint,-1.8209386617189173e-06,0.0015896502491835197,0.00010017576881363857,0.999998731485988,0.0,0.0,0.0,0.0,0.0,0.0,0.0,0.0,0.0,-4.90593768652468e-05,-0.00021121537683205433,7.882935899242892e-06,0.0,0.0,0.0,0.0,0.0,0.0,0.0,0.0,0.0,9.837680820585485e-11,3.061992508604178e-10,9.63120959624714e-12,0.0,0.0,0.0,0.0,0.0,0.0,0.0,0.0,0.0
55.31,122,55,310000000,base_footprint,-1.8209415624924165e-06,0.0015896502491809543,0.00010017759419681996,0.9999987314858051,0.0,0.0,0.0,0.0,0.0,0.0,0.0,0.0,0.0,-4.90593752546705e-05,-0.00021121537727555498,7.882937822528345e-06,0.0,0.0,0.0,0.0,0.0,0.0,0.0,0.0,0.0,1.0044140746365665e-10,3.124029003197156e-10,1.0365704053554591e-11,0.0,0.0,0.0,0.0,0.0,0.0,0.0,0.0,0.0
55.311,123,55,311000000,base_footprint,-1.8209444632641039e-06,0.0015896502491783827,0.00010017941958012275,0.9999987314856222,0.0,0.0,0.0,0.0,0.0,0.0,0.0,0.0,0.0,-4.9059373656540285e-05,-0.00021121537772005828,7.882939735541377e-06,0.0,0.0,0.0,0.0,0.0,0.0,0.0,0.0,0.0,9.988160555438883e-11,3.107192246898798e-10,8.692179615408859e-12,0.0,0.0,0.0,0.0,0.0,0.0,0.0,0.0,0.0
55.312,124,55,312000000,base_footprint,-1.8209473640338246e-06,0.0015896502491758102,0.00010018124496353995,0.9999987314854393,0.0,0.0,0.0,0.0,0.0,0.0,0.0,0.0,0.0,-4.9059372058238214e-05,-0.00021121537815427626,7.88294163454732e-06,0.0,0.0,0.0,0.0,0.0,0.0,0.0,0.0,0.0,9.911689250095064e-11,3.0844995067238e-10,8.91592697126845e-12,0.0,0.0,0.0,0.0,0.0,0.0,0.0,0.0,0.0
55.313,125,55,313000000,base_footprint,-1.820950264815126e-06,0.0015896502491732384,0.00010018307034707142,0.9999987314852563,0.0,0.0,0.0,0.0,0.0,0.0,0.0,0.0,0.0,-4.9059370486966476e-05,-0.0002112153785848331,7.882943533443454e-06,0.0,0.0,0.0,0.0,0.0,0.0,0.0,0.0,0.0,9.909802494315525e-11,3.083911144327908e-10,7.506063226882224e-12,0.0,0.0,0.0,0.0,0.0,0.0,0.0,0.0,0.0
55.314,126,55,314000000,base_footprint,-1.8209531655939313e-06,0.001589650249170673,0.00010018489573071428,0.9999987314850735,0.0,0.0,0.0,0.0,0.0,0.0,0.0,0.0,0.0,-4.9059368887541396e-05,-0.00021121537900499948,7.882945426335642e-06,0.0,0.0,0.0,0.0,0.0,0.0,0.0,0.0,0.0,9.876610289876286e-11,3.07461080735903e-10,6.6452380937943894e-12,0.0,0.0,0.0,0.0,0.0,0.0,0.0,0.0,0.0
55.315,127,55,315000000,base_footprint,-1.8209560663718423e-06,0.0015896502491681132,0.0001001867211144819,0.9999987314848906,0.0,0.0,0.0,0.0,0.0,0.0,0.0,0.0,0.0,-4.905936729123663e-05,-0.00021121537942653243,7.882947346035164e-06,0.0,0.0,0.0,0.0,0.0,0.0,0.0,0.0,0.0,1.0021816451410759e-10,3.1180009078604284e-10,8.651206452681223e-12,0.0,0.0,0.0,0.0,0.0,0.0,0.0,0.0,0.0
55.316,128,55,316000000,base_footprint,-1.8209589671447108e-06,0.0015896502491655592,0.00010018854649837026,0.9999987314847077,0.0,0.0,0.0,0.0,0.0,0.0,0.0,0.0,0.0,-4.905936568667512e-05,-0.00021121537984719423,7.88294925750551e-06,0.0,0.0,0.0,0.0,0.0,0.0,0.0,0.0,0.0,9.976345988591813e-11,3.1047900696749046e-10,4.875237211543268e-12,0.0,0.0,0.0,0.0,0.0,0.0,0.0,0.0,0.0
55.317,129,55,317000000,base_footprint,-1.8209618679166015e-06,0.0015896502491629997,0.00010019037188238605,0.9999987314845249,0.0,0.0,0.0,0.0,0.0,0.0,0.0,0.0,0.0,-4.905936409020981e-05,-0.00021121538029109243,7.882951182602107e-06,0.0,0.0,0.0,0.0,0.0,0.0,0.0,0.0,0.0,1.0053360854976752e-10,3.126746853255188e-10,9.217958976170479e-12,0.0,0.0,0.0,0.0,0.0,0.0,0.0,0.0,0.0
55.318,130,55,318000000,base_footprint,-1.820964768690862e-06,0.0015896502491604477,0.00010019219726651091,0.999998731484342,0.0,0.0,0.0,0.0,0.0,0.0,0.0,0.0,0.0,-4.905936250054907e-05,-0.00021121538070799955,7.882953070933185e-06,0.0,0.0,0.0,0.0,0.0,0.0,0.0,0.0,0.0,9.851448169184816e-11,3.067070019335293e-10,6.32074487130522e-12,0.0,0.0,0.0,0.0,0.0,0.0,0.0,0.0,0.0
55.319,131,55,319000000,base_footprint,-1.8209676694677625e-06,0.0015896502491578913,0.00010019402265075792,0.9999987314841592,0.0,0.0,0.0,0.0,0.0,0.0,0.0,0.0,0.0,-4.905936091138902e-05,-0.00021121538114966546,7.882954985501423e-06,0.0,0.0,0.0,0.0,0.0,0.0,0.0,0.0,0.0,9.9968359919407e-11,3.10957894498547e-10,1.1139562583224327e-11,0.0,0.0,0.0,0.0,0.0,0.0,0.0,0.0,0.0
55.32,132,55,320000000,base_footprint,-1.8209705702437293e-06,0.0015896502491553285,0.00010019584803512129,0.9999987314839763,0.0,0.0,0.0,0.0,0.0,0.0,0.0,0.0,0.0,-4.9059359315020614e-05,-0.00021121538159491477,7.882956888408603e-06,0.0,0.0,0.0,0.0,0.0,0.0,0.0,0.0,0.0,9.93406356643698e-11,3.0907897508427395e-10,9.701046808232095e-12,0.0,0.0,0.0,0.0,0.0,0.0,0.0,0.0,0.0
55.321,133,55,321000000,base_footprint,-1.8209734710200487e-06,0.0015896502491527685,0.0001001976734196086,0.9999987314837934,0.0,0.0,0.0,0.0,0.0,0.0,0.0,0.0,0.0,-4.9059357721229556e-05,-0.00021121538202102384,7.882958806471857e-06,0.0,0.0,0.0,0.0,0.0,0.0,0.0,0.0,0.0,1.0012671994570856e-10,3.115312103104318e-10,6.360330287499042e-12,0.0,0.0,0.0,0.0,0.0,0.0,0.0,0.0,0.0
55.322,134,55,322000000,base_footprint,-1.8209763717924387e-06,0.0015896502491502017,0.00010019949880421356,0.9999987314836104,0.0,0.0,0.0,0.0,0.0,0.0,0.0,0.0,0.0,-4.905935611889337e-05,-0.0002112153824672973,7.882960711921391e-06,0.0,0.0,0.0,0.0,0.0,0.0,0.0,0.0,0.0,9.947969623903436e-11,3.0950000826280616e-10,9.69523618861933e-12,0.0,0.0,0.0,0.0,0.0,0.0,0.0,0.0,0.0
55.323,135,55,323000000,base_footprint,-1.8209792725702745e-06,0.0015896502491476326,0.00010020132418893278,0.9999987314834275,0.0,0.0,0.0,0.0,0.0,0.0,0.0,0.0,0.0,-4.905935453538869e-05,-0.00021121538290476565,7.88296261073477e-06,0.0,0.0,0.0,0.0,0.0,0.0,0.0,0.0,0.0,9.911325929578033e-11,3.08396347887647e-10,1.0868298519542634e-11,0.0,0.0,0.0,0.0,0.0,0.0,0.0,0.0,0.0
55.324,136,55,324000000,base_footprint,-1.8209821733597112e-06,0.001589650249145062,0.0001002031495737643,0.9999987314832446,0.0,0.0,0.0,0.0,0.0,0.0,0.0,0.0,0.0,-4.905935296421384e-05,-0.00021121538333993868,7.88296450578723e-06,0.0,0.0,0.0,0.0,0.0,0.0,0.0,0.0,0.0,9.889821433257109e-11,3.0776811662304685e-10,8.358129184465601e-12,0.0,0.0,0.0,0.0,0.0,0.0,0.0,0.0,0.0
55.324,137,55,325000000,base_footprint,-1.8209850741435743e-06,0.0015896502491424985,0.00010020497495871725,0.9999987314830617,0.0,0.0,0.0,0.0,0.0,0.0,0.0,0.0,0.0,-4.905935135855224e-05,-0.00021121538375870125,7.882966418627658e-06,0.0,0.0,0.0,0.0,0.0,0.0,0.0,0.0,0.0,9.984397859144459e-11,3.10703073628641e-10,7.68992217720012e-12,0.0,0.0,0.0,0.0,0.0,0.0,0.0,0.0,0.0
55.326,138,55,326000000,base_footprint,-1.820987974920324e-06,0.001589650249139926,0.00010020680034379941,0.9999987314828788,0.0,0.0,0.0,0.0,0.0,0.0,0.0,0.0,0.0,-4.9059349749661055e-05,-0.00021121538420870647,7.882968347171249e-06,0.0,0.0,0.0,0.0,0.0,0.0,0.0,0.0,0.0,1.00720070655674e-10,3.1325213793738146e-10,6.842474736388735e-12,0.0,0.0,0.0,0.0,0.0,0.0,0.0,0.0,0.0
55.327,139,55,327000000,base_footprint,-1.820990875705938e-06,0.0015896502491373628,0.00010020862572899637,0.9999987314826958,0.0,0.0,0.0,0.0,0.0,0.0,0.0,0.0,0.0,-4.905934817303801e-05,-0.00021121538462305015,7.882970247125254e-06,0.0,0.0,0.0,0.0,0.0,0.0,0.0,0.0,0.0,9.914047289650365e-11,3.085703689168104e-10,7.648189108148216e-12,0.0,0.0,0.0,0.0,0.0,0.0,0.0,0.0,0.0
55.328,140,55,328000000,base_footprint,-1.8209937764843007e-06,0.0015896502491348026,0.00010021045111430752,0.9999987314825128,0.0,0.0,0.0,0.0,0.0,0.0,0.0,0.0,0.0,-4.905934656409021e-05,-0.00021121538504951948,7.88297214557734e-06,0.0,0.0,0.0,0.0,0.0,0.0,0.0,0.0,0.0,9.908230109249508e-11,3.083765314917446e-10,9.369717097321267e-12,0.0,0.0,0.0,0.0,0.0,0.0,0.0,0.0,0.0
55.329,141,55,329000000,base_footprint,-1.8209966772583958e-06,0.0015896502491322404,0.00010021227649973799,0.9999987314823301,0.0,0.0,0.0,0.0,0.0,0.0,0.0,0.0,0.0,-4.905934496106849e-05,-0.00021121538548648025,7.882974054300398e-06,0.0,0.0,0.0,0.0,0.0,0.0,0.0,0.0,0.0,9.964285769380443e-11,3.100318183396793e-10,8.58498812639955e-12,0.0,0.0,0.0,0.0,0.0,0.0,0.0,0.0,0.0
55.33,142,55,330000000,base_footprint,-1.8209995780399986e-06,0.001589650249129686,0.00010021410188528974,0.9999987314821471,0.0,0.0,0.0,0.0,0.0,0.0,0.0,0.0,0.0,-4.905934338167329e-05,-0.00021121538590233448,7.882975967193692e-06,0.0,0.0,0.0,0.0,0.0,0.0,0.0,0.0,0.0,9.983713033589018e-11,3.106713496896829e-10,6.848626024820716e-12,0.0,0.0,0.0,0.0,0.0,0.0,0.0,0.0,0.0
55.331,143,55,331000000,base_footprint,-1.8210024788141885e-06,0.001589650249127133,0.00010021592727094815,0.9999987314819642,0.0,0.0,0.0,0.0,0.0,0.0,0.0,0.0,0.0,-4.905934177236182e-05,-0.00021121538633229287,7.882977850618591e-06,0.0,0.0,0.0,0.0,0.0,0.0,0.0,0.0,0.0,9.827352992203404e-11,3.0594204272568106e-10,8.572268014591219e-12,0.0,0.0,0.0,0.0,0.0,0.0,0.0,0.0,0.0
55.332,144,55,332000000,base_footprint,-1.8210053795884617e-06,0.0015896502491245692,0.00010021775265673267,0.9999987314817812,0.0,0.0,0.0,0.0,0.0,0.0,0.0,0.0,0.0,-4.905934017808048e-05,-0.00021121538678622057,7.882979773009625e-06,0.0,0.0,0.0,0.0,0.0,0.0,0.0,0.0,0.0,1.0039702760842984e-10,3.122333541102337e-10,9.254268623854838e-12,0.0,0.0,0.0,0.0,0.0,0.0,0.0,0.0,0.0
55.333,145,55,333000000,base_footprint,-1.8210082803620526e-06,0.0015896502491220027,0.00010021957804263451,0.9999987314815982,0.0,0.0,0.0,0.0,0.0,0.0,0.0,0.0,0.0,-4.905933858228935e-05,-0.00021121538722446883,7.882981677862745e-06,0.0,0.0,0.0,0.0,0.0,0.0,0.0,0.0,0.0,9.943721225718971e-11,3.093933962792025e-10,9.343417508539123e-12,0.0,0.0,0.0,0.0,0.0,0.0,0.0,0.0,0.0
55.334,146,55,334000000,base_footprint,-1.8210111811473926e-06,0.0015896502491194394,0.00010022140342865451,0.9999987314814153,0.0,0.0,0.0,0.0,0.0,0.0,0.0,0.0,0.0,-4.905933701134624e-05,-0.00021121538764999156,7.882983584562096e-06,0.0,0.0,0.0,0.0,0.0,0.0,0.0,0.0,0.0,9.951722760496024e-11,3.0965490323400444e-10,8.655699884695469e-12,0.0,0.0,0.0,0.0,0.0,0.0,0.0,0.0,0.0
55.335,147,55,335000000,base_footprint,-1.8210140819297582e-06,0.0015896502491168816,0.00010022322881479787,0.9999987314812323,0.0,0.0,0.0,0.0,0.0,0.0,0.0,0.0,0.0,-4.905933541082051e-05,-0.00021121538807157463,7.882985501380263e-06,0.0,0.0,0.0,0.0,0.0,0.0,0.0,0.0,0.0,1.0005865808954586e-10,3.113395758993697e-10,7.0831582332918375e-12,0.0,0.0,0.0,0.0,0.0,0.0,0.0,0.0,0.0
55.336,148,55,336000000,base_footprint,-1.8210169827064992e-06,0.0015896502491143172,0.00010022505420106666,0.9999987314810493,0.0,0.0,0.0,0.0,0.0,0.0,0.0,0.0,0.0,-4.9059333805016356e-05,-0.00021121538851726657,7.882987422415863e-06,0.0,0.0,0.0,0.0,0.0,0.0,0.0,0.0,0.0,1.0031966616771797e-10,3.1203089228649734e-10,9.725346092925735e-12,0.0,0.0,0.0,0.0,0.0,0.0,0.0,0.0,0.0
55.337,149,55,337000000,base_footprint,-1.8210198834863649e-06,0.0015896502491117468,0.00010022687958743785,0.9999987314808665,0.0,0.0,0.0,0.0,0.0,0.0,0.0,0.0,0.0,-4.90593322170191e-05,-0.00021121538896245375,7.882989297463994e-06,0.0,0.0,0.0,0.0,0.0,0.0,0.0,0.0,0.0,9.783960649256121e-11,3.045520440781851e-10,1.0337631821401007e-11,0.0,0.0,0.0,0.0,0.0,0.0,0.0,0.0,0.0
55.338,150,55,338000000,base_footprint,-1.8210227842699954e-06,0.0015896502491091744,0.0001002287049739374,0.9999987314806836,0.0,0.0,0.0,0.0,0.0,0.0,0.0,0.0,0.0,-4.905933062998541e-05,-0.0002112153893988438,7.882991224501532e-06,0.0,0.0,0.0,0.0,0.0,0.0,0.0,0.0,0.0,1.0063210593415832e-10,3.1297547889534746e-10,1.0478286673238635e-11,0.0,0.0,0.0,0.0,0.0,0.0,0.0,0.0,0.0
55.339,151,55,339000000,base_footprint,-1.821025685043935e-06,0.001589650249106601,0.00010023053036055445,0.9999987314805007,0.0,0.0,0.0,0.0,0.0,0.0,0.0,0.0,0.0,-4.9059329016050596e-05,-0.00021121538983288337,7.88299312949802e-06,0.0,0.0,0.0,0.0,0.0,0.0,0.0,0.0,0.0,9.943440023038437e-11,3.0944418520536413e-10,6.367005169350914e-12,0.0,0.0,0.0,0.0,0.0,0.0,0.0,0.0,0.0
55.34,152,55,340000000,base_footprint,-1.8210285858263334e-06,0.001589650249104031,0.00010023235574730065,0.9999987314803177,0.0,0.0,0.0,0.0,0.0,0.0,0.0,0.0,0.0,-4.90593274385163e-05,-0.0002112153902581383,7.882995058127445e-06,0.0,0.0,0.0,0.0,0.0,0.0,0.0,0.0,0.0,1.0069254688565577e-10,3.132185074541986e-10,6.3504675772475954e-12,0.0,0.0,0.0,0.0,0.0,0.0,0.0,0.0,0.0
55.341,153,55,341000000,base_footprint,-1.8210314866146047e-06,0.0015896502491014692,0.00010023418113415884,0.9999987314801347,0.0,0.0,0.0,0.0,0.0,0.0,0.0,0.0,0.0,-4.9059325855847485e-05,-0.00021121539067446305,7.882996952369761e-06,0.0,0.0,0.0,0.0,0.0,0.0,0.0,0.0,0.0,9.884019564994385e-11,3.0765408578442775e-10,9.092397154637629e-12,0.0,0.0,0.0,0.0,0.0,0.0,0.0,0.0,0.0
55.342,154,55,342000000,base_footprint,-1.821034387390854e-06,0.0015896502490989047,0.00010023600652112582,0.9999987314799518,0.0,0.0,0.0,0.0,0.0,0.0,0.0,0.0,0.0,-4.905932423731708e-05,-0.00021121539111227587,7.882998839936676e-06,0.0,0.0,0.0,0.0,0.0,0.0,0.0,0.0,0.0,9.849653559558359e-11,3.0662726513912477e-10,5.5462442113445264e-12,0.0,0.0,0.0,0.0,0.0,0.0,0.0,0.0,0.0
55.343,155,55,343000000,base_footprint,-1.8210372881680322e-06,0.0015896502490963494,0.00010023783190822069,0.9999987314797688,0.0,0.0,0.0,0.0,0.0,0.0,0.0,0.0,0.0,-4.905932264470822e-05,-0.00021121539152633742,7.883000765816786e-06,0.0,0.0,0.0,0.0,0.0,0.0,0.0,0.0,0.0,1.0053311077464366e-10,3.127960809670515e-10,5.591590320859914e-12,0.0,0.0,0.0,0.0,0.0,0.0,0.0,0.0,0.0
55.344,156,55,344000000,base_footprint,-1.8210401889486692e-06,0.0015896502490937944,0.00010023965729543432,0.9999987314795856,0.0,0.0,0.0,0.0,0.0,0.0,0.0,0.0,0.0,-4.905932105720068e-05,-0.00021121539195763763,7.883002673686043e-06,0.0,0.0,0.0,0.0,0.0,0.0,0.0,0.0,0.0,9.959629631397634e-11,3.098695139301664e-10,1.090496842748081e-11,0.0,0.0,0.0,0.0,0.0,0.0,0.0,0.0,0.0
55.345,157,55,345000000,base_footprint,-1.8210430897296057e-06,0.0015896502490912378,0.00010024148268276705,0.9999987314794027,0.0,0.0,0.0,0.0,0.0,0.0,0.0,0.0,0.0,-4.90593194632591e-05,-0.00021121539239384434,7.883004582074665e-06,0.0,0.0,0.0,0.0,0.0,0.0,0.0,0.0,0.0,9.962382194700352e-11,3.099637967449877e-10,9.007252871160163e-12,0.0,0.0,0.0,0.0,0.0,0.0,0.0,0.0,0.0
55.346,158,55,346000000,base_footprint,-1.821045990508226e-06,0.0015896502490886778,0.00010024330807021906,0.9999987314792197,0.0,0.0,0.0,0.0,0.0,0.0,0.0,0.0,0.0,-4.905931786414407e-05,-0.00021121539283326562,7.883006490793089e-06,0.0,0.0,0.0,0.0,0.0,0.0,0.0,0.0,0.0,9.964489204774237e-11,3.1002496536143395e-10,8.685514779090391e-12,0.0,0.0,0.0,0.0,0.0,0.0,0.0,0.0,0.0
55.347,159,55,347000000,base_footprint,-1.8210488912925068e-06,0.0015896502490861102,0.00010024513345777983,0.9999987314790367,0.0,0.0,0.0,0.0,0.0,0.0,0.0,0.0,0.0,-4.9059316281118956e-05,-0.0002112153932807847,7.883008378631489e-06,0.0,0.0,0.0,0.0,0.0,0.0,0.0,0.0,0.0,9.852695928822417e-11,3.066171230818616e-10,9.318234678401226e-12,0.0,0.0,0.0,0.0,0.0,0.0,0.0,0.0,0.0
55.348,160,55,348000000,base_footprint,-1.82105179207467e-06,0.0015896502490835441,0.00010024695884546524,0.9999987314788538,0.0,0.0,0.0,0.0,0.0,0.0,0.0,0.0,0.0,-4.905931468236962e-05,-0.0002112153937102047,7.88301029809387e-06,0.0,0.0,0.0,0.0,0.0,0.0,0.0,0.0,0.0,1.0021517938054577e-10,3.117655292651329e-10,9.19975726984012e-12,0.0,0.0,0.0,0.0,0.0,0.0,0.0,0.0,0.0
55.349,161,55,349000000,base_footprint,-1.8210546928561017e-06,0.0015896502490809813,0.00010024878423326637,0.9999987314786708,0.0,0.0,0.0,0.0,0.0,0.0,0.0,0.0,0.0,-4.905931308639494e-05,-0.0002112153941362852,7.883012199659442e-06,0.0,0.0,0.0,0.0,0.0,0.0,0.0,0.0,0.0,9.923581336454733e-11,3.08861009402963e-10,5.6069045138969675e-12,0.0,0.0,0.0,0.0,0.0,0.0,0.0,0.0,0.0
55.35,162,55,350000000,base_footprint,-1.8210575936385104e-06,0.0015896502490784137,0.00010025060962119121,0.9999987314784878,0.0,0.0,0.0,0.0,0.0,0.0,0.0,0.0,0.0,-4.9059311493880906e-05,-0.00021121539457829083,7.883014117333244e-06,0.0,0.0,0.0,0.0,0.0,0.0,0.0,0.0,0.0,1.0013588173277664e-10,3.1146616052849724e-10,1.0905963866683129e-11,0.0,0.0,0.0,0.0,0.0,0.0,0.0,0.0,0.0
55.351,163,55,351000000,base_footprint,-1.8210604944159712e-06,0.0015896502490758489,0.00010025243500922126,0.9999987314783049,0.0,0.0,0.0,0.0,0.0,0.0,0.0,0.0,0.0,-4.905930988965137e-05,-0.00021121539500522263,7.883015997918399e-06,0.0,0.0,0.0,0.0,0.0,0.0,0.0,0.0,0.0,9.81167717922415e-11,3.054739582118406e-10,8.568451679006465e-12,0.0,0.0,0.0,0.0,0.0,0.0,0.0,0.0,0.0
55.352,164,55,352000000,base_footprint,-1.8210633951969476e-06,0.001589650249073283,0.00010025426039737003,0.9999987314781219,0.0,0.0,0.0,0.0,0.0,0.0,0.0,0.0,0.0,-4.905930830221027e-05,-0.00021121539543951227,7.883017905610592e-06,0.0,0.0,0.0,0.0,0.0,0.0,0.0,0.0,0.0,9.958391759341813e-11,3.09841277490041e-10,9.322254430720288e-12,0.0,0.0,0.0,0.0,0.0,0.0,0.0,0.0,0.0
55.353,165,55,353000000,base_footprint,-1.8210662959759978e-06,0.0015896502490707115,0.00010025608578564376,0.9999987314779388,0.0,0.0,0.0,0.0,0.0,0.0,0.0,0.0,0.0,-4.905930670378959e-05,-0.00021121539588286658,7.88301982574617e-06,0.0,0.0,0.0,0.0,0.0,0.0,0.0,0.0,0.0,1.0026172544491846e-10,3.118738829978723e-10,7.945573609898103e-12,0.0,0.0,0.0,0.0,0.0,0.0,0.0,0.0,0.0
55.354,166,55,354000000,base_footprint,-1.8210691967666452e-06,0.001589650249068139,0.00010025791117403996,0.9999987314777558,0.0,0.0,0.0,0.0,0.0,0.0,0.0,0.0,0.0,-4.905930513259275e-05,-0.0002112153963175819,7.883021741045678e-06,0.0,0.0,0.0,0.0,0.0,0.0,0.0,0.0,0.0,9.998784830473624e-11,3.1104875336885537e-10,7.956923771960245e-12,0.0,0.0,0.0,0.0,0.0,0.0,0.0,0.0,0.0
55.355,167,55,355000000,base_footprint,-1.8210720975536459e-06,0.0015896502490655702,0.00010025973656255466,0.9999987314775728,0.0,0.0,0.0,0.0,0.0,0.0,0.0,0.0,0.0,-4.9059303530682196e-05,-0.0002112153967426078,7.883023648106816e-06,0.0,0.0,0.0,0.0,0.0,0.0,0.0,0.0,0.0,9.953538241442417e-11,3.097605809114001e-10,6.709583803666153e-12,0.0,0.0,0.0,0.0,0.0,0.0,0.0,0.0,0.0
55.356,168,55,356000000,base_footprint,-1.8210749983400068e-06,0.0015896502490630085,0.00010026156195118892,0.9999987314773898,0.0,0.0,0.0,0.0,0.0,0.0,0.0,0.0,0.0,-4.905930193499725e-05,-0.0002112153971613494,7.883025557438489e-06,0.0,0.0,0.0,0.0,0.0,0.0,0.0,0.0,0.0,9.965681843052906e-11,3.1011912811923826e-10,8.78549460829628e-12,0.0,0.0,0.0,0.0,0.0,0.0,0.0,0.0,0.0
55.359,169,55,357000000,base_footprint,-1.821077899126199e-06,0.0015896502490604554,0.00010026338733993408,0.9999987314772066,0.0,0.0,0.0,0.0,0.0,0.0,0.0,0.0,0.0,-4.905930034022439e-05,-0.0002112153975755229,7.883027449452674e-06,0.0,0.0,0.0,0.0,0.0,0.0,0.0,0.0,0.0,9.87074243162056e-11,3.073115548241689e-10,5.190174474436491e-12,0.0,0.0,0.0,0.0,0.0,0.0,0.0,0.0,0.0
55.36,170,55,358000000,base_footprint,-1.8210807999124382e-06,0.0015896502490578954,0.00010026521272880002,0.9999987314770238,0.0,0.0,0.0,0.0,0.0,0.0,0.0,0.0,0.0,-4.905929874592528e-05,-0.00021121539802360223,7.88302936111164e-06,0.0,0.0,0.0,0.0,0.0,0.0,0.0,0.0,0.0,9.981831425343739e-11,3.1049438630677696e-10,1.1032535355562881e-11,0.0,0.0,0.0,0.0,0.0,0.0,0.0,0.0,0.0
55.36,172,55,360000000,base_footprint,-1.8210866014652932e-06,0.0015896502490527857,0.00010026886350687903,0.9999987314766576,0.0,0.0,0.0,0.0,0.0,0.0,0.0,0.0,0.0,-4.905929554055349e-05,-0.00021121539887780294,7.883033152353959e-06,0.0,0.0,0.0,0.0,0.0,0.0,0.0,0.0,0.0,9.797446349278605e-11,3.050057322901894e-10,8.962452993053279e-12,0.0,0.0,0.0,0.0,0.0,0.0,0.0,0.0,0.0
55.361,173,55,361000000,base_footprint,-1.8210895022506672e-06,0.0015896502490502212,0.00010027068889609253,0.9999987314764746,0.0,0.0,0.0,0.0,0.0,0.0,0.0,0.0,0.0,-4.9059293960872394e-05,-0.00021121539932919946,7.883035066905169e-06,0.0,0.0,0.0,0.0,0.0,0.0,0.0,0.0,0.0,9.99718250287302e-11,3.1094076689780943e-10,1.0022614312422298e-11,0.0,0.0,0.0,0.0,0.0,0.0,0.0,0.0,0.0
55.362,174,55,362000000,base_footprint,-1.8210924030455372e-06,0.0015896502490476588,0.00010027251428542569,0.9999987314762917,0.0,0.0,0.0,0.0,0.0,0.0,0.0,0.0,0.0,-4.905929238539144e-05,-0.00021121539975834806,7.883036976519224e-06,0.0,0.0,0.0,0.0,0.0,0.0,0.0,0.0,0.0,9.967713590582593e-11,3.101340801421012e-10,8.172080110530403e-12,0.0,0.0,0.0,0.0,0.0,0.0,0.0,0.0,0.0
55.363,175,55,363000000,base_footprint,-1.8210953038265418e-06,0.0015896502490450914,0.00010027433967487682,0.9999987314761086,0.0,0.0,0.0,0.0,0.0,0.0,0.0,0.0,0.0,-4.905929076305034e-05,-0.0002112154001995464,7.883038882455243e-06,0.0,0.0,0.0,0.0,0.0,0.0,0.0,0.0,0.0,9.950099404509632e-11,3.096094237703416e-10,8.77594276681013e-12,0.0,0.0,0.0,0.0,0.0,0.0,0.0,0.0,0.0
55.364,176,55,364000000,base_footprint,-1.8210982046102899e-06,0.0015896502490425231,0.00010027616506444165,0.9999987314759256,0.0,0.0,0.0,0.0,0.0,0.0,0.0,0.0,0.0,-4.905928917418565e-05,-0.00021121540063420905,7.883040780134256e-06,0.0,0.0,0.0,0.0,0.0,0.0,0.0,0.0,0.0,9.904690505524788e-11,3.0822050559927894e-10,9.787026449888258e-12,0.0,0.0,0.0,0.0,0.0,0.0,0.0,0.0,0.0
55.365,177,55,365000000,base_footprint,-1.8211011053992438e-06,0.0015896502490399566,0.00010027799045413023,0.9999987314757425,0.0,0.0,0.0,0.0,0.0,0.0,0.0,0.0,0.0,-4.905928759010186e-05,-0.00021121540106312637,7.883042697919663e-06,0.0,0.0,0.0,0.0,0.0,0.0,0.0,0.0,0.0,1.0011551156129445e-10,3.1147140573302106e-10,7.220461154345255e-12,0.0,0.0,0.0,0.0,0.0,0.0,0.0,0.0,0.0
55.366,178,55,366000000,base_footprint,-1.821104006188942e-06,0.0015896502490373957,0.0001002798158439364,0.9999987314755594,0.0,0.0,0.0,0.0,0.0,0.0,0.0,0.0,0.0,-4.905928599709899e-05,-0.0002112154014841155,7.883044603378583e-06,0.0,0.0,0.0,0.0,0.0,0.0,0.0,0.0,0.0,9.945596228058096e-11,3.094874184229263e-10,1.0658812997132787e-11,0.0,0.0,0.0,0.0,0.0,0.0,0.0,0.0,0.0
55.367,179,55,367000000,base_footprint,-1.82110690696907e-06,0.0015896502490348287,0.0001002816412338646,0.9999987314753763,0.0,0.0,0.0,0.0,0.0,0.0,0.0,0.0,0.0,-4.905928438339448e-05,-0.00021121540192873878,7.883046517415376e-06,0.0,0.0,0.0,0.0,0.0,0.0,0.0,0.0,0.0,9.993501955780298e-11,3.109089722693838e-10,7.38650763202174e-12,0.0,0.0,0.0,0.0,0.0,0.0,0.0,0.0,0.0
55.368,180,55,368000000,base_footprint,-1.8211098077538514e-06,0.0015896502490322629,0.00010028346662391284,0.9999987314751932,0.0,0.0,0.0,0.0,0.0,0.0,0.0,0.0,0.0,-4.905928279824302e-05,-0.00021121540235911272,7.883048427756155e-06,0.0,0.0,0.0,0.0,0.0,0.0,0.0,0.0,0.0,9.971121486740582e-11,3.102664762235408e-10,5.636680372203751e-12,0.0,0.0,0.0,0.0,0.0,0.0,0.0,0.0,0.0
55.369,181,55,369000000,base_footprint,-1.8211127085416676e-06,0.0015896502490296953,0.00010028529201407635,0.9999987314750102,0.0,0.0,0.0,0.0,0.0,0.0,0.0,0.0,0.0,-4.9059281209917554e-05,-0.00021121540279492976,7.8830503285263e-06,0.0,0.0,0.0,0.0,0.0,0.0,0.0,0.0,0.0,9.921141962718992e-11,3.087206119118843e-10,8.823006725275726e-12,0.0,0.0,0.0,0.0,0.0,0.0,0.0,0.0,0.0
55.37,182,55,370000000,base_footprint,-1.8211156093235162e-06,0.001589650249027129,0.00010028711740436096,0.9999987314748271,0.0,0.0,0.0,0.0,0.0,0.0,0.0,0.0,0.0,-4.9059279603452735e-05,-0.00021121540322473857,7.883052240829154e-06,0.0,0.0,0.0,0.0,0.0,0.0,0.0,0.0,0.0,9.983327729484211e-11,3.1061707965732014e-10,9.893120537806918e-12,0.0,0.0,0.0,0.0,0.0,0.0,0.0,0.0,0.0
55.371,183,55,371000000,base_footprint,-1.8211185101088082e-06,0.0015896502490245707,0.00010028894279476752,0.999998731474644,0.0,0.0,0.0,0.0,0.0,0.0,0.0,0.0,0.0,-4.905927801586863e-05,-0.00021121540364112506,7.883054155034761e-06,0.0,0.0,0.0,0.0,0.0,0.0,0.0,0.0,0.0,9.991121303101922e-11,3.1089651620971165e-10,7.36020322782579e-12,0.0,0.0,0.0,0.0,0.0,0.0,0.0,0.0,0.0
55.372,184,55,372000000,base_footprint,-1.8211214108902346e-06,0.0015896502490220096,0.00010029076818530324,0.999998731474461,0.0,0.0,0.0,0.0,0.0,0.0,0.0,0.0,0.0,-4.905927641354358e-05,-0.00021121540407959534,7.883056083512851e-06,0.0,0.0,0.0,0.0,0.0,0.0,0.0,0.0,0.0,1.0071584557506012e-10,3.1323168506141787e-10,1.0735742235661798e-11,0.0,0.0,0.0,0.0,0.0,0.0,0.0,0.0,0.0
55.373,185,55,373000000,base_footprint,-1.8211243116757284e-06,0.0015896502490194483,0.00010029259357594279,0.999998731474278,0.0,0.0,0.0,0.0,0.0,0.0,0.0,0.0,0.0,-4.905927482731358e-05,-0.0002112154045129054,7.883057961348229e-06,0.0,0.0,0.0,0.0,0.0,0.0,0.0,0.0,0.0,9.796374232613349e-11,3.05000918238865e-10,5.997633135644659e-12,0.0,0.0,0.0,0.0,0.0,0.0,0.0,0.0,0.0
55.374,186,55,374000000,base_footprint,-1.8211272124622446e-06,0.0015896502490168817,0.00010029441896670234,0.9999987314740948,0.0,0.0,0.0,0.0,0.0,0.0,0.0,0.0,0.0,-4.905927323489186e-05,-0.0002112154049545587,7.883059871652443e-06,0.0,0.0,0.0,0.0,0.0,0.0,0.0,0.0,0.0,9.972935944852929e-11,3.1027205067658094e-10,8.191815472604381e-12,0.0,0.0,0.0,0.0,0.0,0.0,0.0,0.0,0.0
55.375,187,55,375000000,base_footprint,-1.8211301132602203e-06,0.0015896502490143202,0.00010029624435757265,0.9999987314739118,0.0,0.0,0.0,0.0,0.0,0.0,0.0,0.0,0.0,-4.9059271663430906e-05,-0.00021121540537824267,7.883061763453754e-06,0.0,0.0,0.0,0.0,0.0,0.0,0.0,0.0,0.0,9.871106718839474e-11,3.0724163369901195e-10,8.231243596056706e-12,0.0,0.0,0.0,0.0,0.0,0.0,0.0,0.0,0.0
55.376,188,55,376000000,base_footprint,-1.821133014053097e-06,0.001589650249011764,0.00010029806974857586,0.9999987314737286,0.0,0.0,0.0,0.0,0.0,0.0,0.0,0.0,0.0,-4.905927005859791e-05,-0.00021121540579870478,7.883063699407132e-06,0.0,0.0,0.0,0.0,0.0,0.0,0.0,0.0,0.0,1.0108828312993471e-10,3.144469408392024e-10,6.802592946305654e-12,0.0,0.0,0.0,0.0,0.0,0.0,0.0,0.0,0.0
55.377,189,55,377000000,base_footprint,-1.8211359148399474e-06,0.0015896502490092012,0.00010029989513969025,0.9999987314735456,0.0,0.0,0.0,0.0,0.0,0.0,0.0,0.0,0.0,-4.905926845211929e-05,-0.0002112154062451749,7.883065591879112e-06,0.0,0.0,0.0,0.0,0.0,0.0,0.0,0.0,0.0,9.878006456716987e-11,3.074033957549097e-10,9.374130816638614e-12,0.0,0.0,0.0,0.0,0.0,0.0,0.0,0.0,0.0
55.378,190,55,378000000,base_footprint,-1.8211388156279154e-06,0.0015896502490066352,0.00010030172053092042,0.9999987314733625,0.0,0.0,0.0,0.0,0.0,0.0,0.0,0.0,0.0,-4.905926685999304e-05,-0.00021121540668421883,7.883067493687978e-06,0.0,0.0,0.0,0.0,0.0,0.0,0.0,0.0,0.0,9.927598765969149e-11,3.0889495829737565e-10,1.041203907317279e-11,0.0,0.0,0.0,0.0,0.0,0.0,0.0,0.0,0.0
55.379,191,55,379000000,base_footprint,-1.8211417164164075e-06,0.001589650249004068,0.00010030354592227126,0.9999987314731794,0.0,0.0,0.0,0.0,0.0,0.0,0.0,0.0,0.0,-4.905926526648899e-05,-0.000211215407118629,7.883069405281637e-06,0.0,0.0,0.0,0.0,0.0,0.0,0.0,0.0,0.0,9.979730618598433e-11,3.1048237036441427e-10,9.825628278966175e-12,0.0,0.0,0.0,0.0,0.0,0.0,0.0,0.0,0.0
55.38,192,55,380000000,base_footprint,-1.821144617202034e-06,0.0015896502490014975,0.000100305371313737,0.9999987314729963,0.0,0.0,0.0,0.0,0.0,0.0,0.0,0.0,0.0,-4.9059263666362986e-05,-0.0002112154075575854,7.883071305247968e-06,0.0,0.0,0.0,0.0,0.0,0.0,0.0,0.0,0.0,9.917297674519336e-11,3.0860834663352243e-10,8.748258037771555e-12,0.0,0.0,0.0,0.0,0.0,0.0,0.0,0.0,0.0
55.381,193,55,381000000,base_footprint,-1.8211475179918907e-06,0.001589650248998929,0.00010030719670533265,0.9999987314728133,0.0,0.0,0.0,0.0,0.0,0.0,0.0,0.0,0.0,-4.905926208021592e-05,-0.00021121540798635133,7.883073235326346e-06,0.0,0.0,0.0,0.0,0.0,0.0,0.0,0.0,0.0,1.007750522513724e-10,3.134663844506281e-10,6.197595132784224e-12,0.0,0.0,0.0,0.0,0.0,0.0,0.0,0.0,0.0
55.382,194,55,382000000,base_footprint,-1.8211504187810395e-06,0.0015896502489963684,0.00010030902209703838,0.9999987314726302,0.0,0.0,0.0,0.0,0.0,0.0,0.0,0.0,0.0,-4.905926048439381e-05,-0.00021121540840297903,7.883075125655573e-06,0.0,0.0,0.0,0.0,0.0,0.0,0.0,0.0,0.0,9.862706809304461e-11,3.070400455573937e-10,7.632168215231453e-12,0.0,0.0,0.0,0.0,0.0,0.0,0.0,0.0,0.0
55.383,195,55,383000000,base_footprint,-1.8211533195667436e-06,0.001589650248993807,0.00010031084748886165,0.9999987314724471,0.0,0.0,0.0,0.0,0.0,0.0,0.0,0.0,0.0,-4.90592588830416e-05,-0.0002112154088369171,7.883077030910097e-06,0.0,0.0,0.0,0.0,0.0,0.0,0.0,0.0,0.0,9.945886861490216e-11,3.094672232537393e-10,1.0601550835546933e-11,0.0,0.0,0.0,0.0,0.0,0.0,0.0,0.0,0.0
55.384,196,55,384000000,base_footprint,-1.821156220349659e-06,0.0015896502489912343,0.00010031267288080621,0.999998731472264,0.0,0.0,0.0,0.0,0.0,0.0,0.0,0.0,0.0,-4.905925728297281e-05,-0.00021121540929243648,7.883078943649026e-06,0.0,0.0,0.0,0.0,0.0,0.0,0.0,0.0,0.0,9.987604971551209e-11,3.106778760660193e-10,8.126918415219711e-12,0.0,0.0,0.0,0.0,0.0,0.0,0.0,0.0,0.0
55.385,197,55,385000000,base_footprint,-1.821159121138266e-06,0.001589650248988663,0.00010031449827287095,0.9999987314720808,0.0,0.0,0.0,0.0,0.0,0.0,0.0,0.0,0.0,-4.905925569990841e-05,-0.00021121540972116667,7.883080854305814e-06,0.0,0.0,0.0,0.0,0.0,0.0,0.0,0.0,0.0,9.973097579477914e-11,3.1031458179489597e-10,7.175954989834393e-12,0.0,0.0,0.0,0.0,0.0,0.0,0.0,0.0,0.0
55.386,198,55,386000000,base_footprint,-1.8211620219333888e-06,0.0015896502489861014,0.00010031632366504856,0.9999987314718977,0.0,0.0,0.0,0.0,0.0,0.0,0.0,0.0,0.0,-4.905925411851743e-05,-0.00021121541013417128,7.88308275039634e-06,0.0,0.0,0.0,0.0,0.0,0.0,0.0,0.0,0.0,9.89355137810198e-11,3.07951814581858e-10,8.992596387514145e-12,0.0,0.0,0.0,0.0,0.0,0.0,0.0,0.0,0.0
55.387,199,55,387000000,base_footprint,-1.8211649227207518e-06,0.0015896502489835382,0.0001003181490573475,0.9999987314717146,0.0,0.0,0.0,0.0,0.0,0.0,0.0,0.0,0.0,-4.90592525084933e-05,-0.0002112154105707302,7.883084663047854e-06,0.0,0.0,0.0,0.0,0.0,0.0,0.0,0.0,0.0,9.984931408208387e-11,3.1067908741401295e-10,6.762866885314111e-12,0.0,0.0,0.0,0.0,0.0,0.0,0.0,0.0,0.0
55.388,200,55,388000000,base_footprint,-1.8211678235180048e-06,0.0015896502489809799,0.00010031997444976082,0.9999987314715315,0.0,0.0,0.0,0.0,0.0,0.0,0.0,0.0,0.0,-4.9059250933859486e-05,-0.00021121541099328222,7.883086562121778e-06,0.0,0.0,0.0,0.0,0.0,0.0,0.0,0.0,0.0,9.909975428192319e-11,3.08424906662559e-10,7.405707132152018e-12,0.0,0.0,0.0,0.0,0.0,0.0,0.0,0.0,0.0
55.388,201,55,389000000,base_footprint,-1.821170724305304e-06,0.0015896502489784194,0.00010032179984229308,0.9999987314713484,0.0,0.0,0.0,0.0,0.0,0.0,0.0,0.0,0.0,-4.9059249319371435e-05,-0.00021121541143006073,7.883088470080297e-06,0.0,0.0,0.0,0.0,0.0,0.0,0.0,0.0,0.0,9.960404996378627e-11,3.0992525109509425e-10,8.780695998702592e-12,0.0,0.0,0.0,0.0,0.0,0.0,0.0,0.0,0.0
55.39,202,55,390000000,base_footprint,-1.821173625097775e-06,0.001589650248975859,0.00010032362523494179,0.9999987314711652,0.0,0.0,0.0,0.0,0.0,0.0,0.0,0.0,0.0,-4.905924773534266e-05,-0.00021121541186205515,7.883090373226767e-06,0.0,0.0,0.0,0.0,0.0,0.0,0.0,0.0,0.0,9.932917560582787e-11,3.0909916616351737e-10,7.061328660414136e-12,0.0,0.0,0.0,0.0,0.0,0.0,0.0,0.0,0.0
55.39,203,55,391000000,base_footprint,-1.821176525881489e-06,0.0015896502489732953,0.00010032545062771553,0.9999987314709822,0.0,0.0,0.0,0.0,0.0,0.0,0.0,0.0,0.0,-4.905924612320738e-05,-0.00021121541230160898,7.883092293350558e-06,0.0,0.0,0.0,0.0,0.0,0.0,0.0,0.0,0.0,1.002624284024775e-10,3.118928804802573e-10,8.880307236918062e-12,0.0,0.0,0.0,0.0,0.0,0.0,0.0,0.0,0.0
55.391,204,55,392000000,base_footprint,-1.8211794266675318e-06,0.0015896502489707316,0.00010032727602060564,0.999998731470799,0.0,0.0,0.0,0.0,0.0,0.0,0.0,0.0,0.0,-4.905924453345803e-05,-0.00021121541273396102,7.883094196349806e-06,0.0,0.0,0.0,0.0,0.0,0.0,0.0,0.0,0.0,9.933266131773036e-11,3.090839644755881e-10,1.020516745469166e-11,0.0,0.0,0.0,0.0,0.0,0.0,0.0,0.0,0.0
55.393,205,55,393000000,base_footprint,-1.8211823274542803e-06,0.001589650248968171,0.00010032910141361926,0.9999987314706158,0.0,0.0,0.0,0.0,0.0,0.0,0.0,0.0,0.0,-4.905924294032061e-05,-0.00021121541316023457,7.883096113637373e-06,0.0,0.0,0.0,0.0,0.0,0.0,0.0,0.0,0.0,1.0009380571601752e-10,3.114045433093672e-10,9.217193587176557e-12,0.0,0.0,0.0,0.0,0.0,0.0,0.0,0.0,0.0
55.394,206,55,394000000,base_footprint,-1.8211852282457995e-06,0.0015896502489656066,0.00010033092680674146,0.9999987314704326,0.0,0.0,0.0,0.0,0.0,0.0,0.0,0.0,0.0,-4.9059241355521505e-05,-0.0002112154135999334,7.883098001070782e-06,0.0,0.0,0.0,0.0,0.0,0.0,0.0,0.0,0.0,9.849938227742588e-11,3.0655413474615053e-10,9.90680324507846e-12,0.0,0.0,0.0,0.0,0.0,0.0,0.0,0.0,0.0
55.396,207,55,395000000,base_footprint,-1.8211881290422969e-06,0.001589650248963037,0.00010033275219998649,0.9999987314702496,0.0,0.0,0.0,0.0,0.0,0.0,0.0,0.0,0.0,-4.905923977098018e-05,-0.00021121541404395738,7.883099916969096e-06,0.0,0.0,0.0,0.0,0.0,0.0,0.0,0.0,0.0,1.0002779395602512e-10,3.1116644860211437e-10,6.902322900834692e-12,0.0,0.0,0.0,0.0,0.0,0.0,0.0,0.0,0.0
55.396,208,55,396000000,base_footprint,-1.8211910298392769e-06,0.0015896502489604698,0.00010033457759334973,0.9999987314700663,0.0,0.0,0.0,0.0,0.0,0.0,0.0,0.0,0.0,-4.905923817740322e-05,-0.00021121541447010155,7.883101823604885e-06,0.0,0.0,0.0,0.0,0.0,0.0,0.0,0.0,0.0,9.951610277505365e-11,3.0967898290298846e-10,7.995237722691621e-12,0.0,0.0,0.0,0.0,0.0,0.0,0.0,0.0,0.0
55.397,209,55,397000000,base_footprint,-1.8211939306191479e-06,0.0015896502489579022,0.00010033640298684098,0.9999987314698833,0.0,0.0,0.0,0.0,0.0,0.0,0.0,0.0,0.0,-4.9059236548574564e-05,-0.00021121541490425887,7.883103749599199e-06,0.0,0.0,0.0,0.0,0.0,0.0,0.0,0.0,0.0,1.0058391938395353e-10,3.1286953975650475e-10,1.1294638375538585e-11,0.0,0.0,0.0,0.0,0.0,0.0,0.0,0.0,0.0
55.398,210,55,398000000,base_footprint,-1.8211968314101796e-06,0.0015896502489553361,0.00010033822838043827,0.9999987314697001,0.0,0.0,0.0,0.0,0.0,0.0,0.0,0.0,0.0,-4.9059234976678705e-05,-0.00021121541533308629,7.883105632028961e-06,0.0,0.0,0.0,0.0,0.0,0.0,0.0,0.0,0.0,9.820386463265632e-11,3.057236290123174e-10,5.886941657092743e-12,0.0,0.0,0.0,0.0,0.0,0.0,0.0,0.0,0.0
55.401,211,55,399000000,base_footprint,-1.8211997322096033e-06,0.001589650248952779,0.0001003400537741586,0.9999987314695169,0.0,0.0,0.0,0.0,0.0,0.0,0.0,0.0,0.0,-4.905923339888882e-05,-0.00021121541574784948,7.883107548395546e-06,0.0,0.0,0.0,0.0,0.0,0.0,0.0,0.0,0.0,1.0001948065969999e-10,3.1123205120230154e-10,5.977133680952487e-12,0.0,0.0,0.0,0.0,0.0,0.0,0.0,0.0,0.0
55.401,213,55,401000000,base_footprint,-1.8212055337861665e-06,0.0015896502489476593,0.0001003437045619576,0.9999987314691505,0.0,0.0,0.0,0.0,0.0,0.0,0.0,0.0,0.0,-4.905923017188685e-05,-0.00021121541662107632,7.883111362998778e-06,0.0,0.0,0.0,0.0,0.0,0.0,0.0,0.0,0.0,9.929839421728058e-11,3.090108350941298e-10,8.887557782822036e-12,0.0,0.0,0.0,0.0,0.0,0.0,0.0,0.0,0.0
55.402,214,55,402000000,base_footprint,-1.8212084345698845e-06,0.0015896502489450954,0.00010034552995603282,0.9999987314689673,0.0,0.0,0.0,0.0,0.0,0.0,0.0,0.0,0.0,-4.905922858407169e-05,-0.00021121541705868048,7.883113268588643e-06,0.0,0.0,0.0,0.0,0.0,0.0,0.0,0.0,0.0,9.947515190956387e-11,3.095009722006832e-10,9.636215238820657e-12,0.0,0.0,0.0,0.0,0.0,0.0,0.0,0.0,0.0
55.403,215,55,403000000,base_footprint,-1.8212113353551888e-06,0.0015896502489425334,0.00010034735535022127,0.9999987314687843,0.0,0.0,0.0,0.0,0.0,0.0,0.0,0.0,0.0,-4.9059226992783645e-05,-0.0002112154174876844,7.88311516523592e-06,0.0,0.0,0.0,0.0,0.0,0.0,0.0,0.0,0.0,9.897308983114439e-11,3.0805707121118153e-10,5.789476316694133e-12,0.0,0.0,0.0,0.0,0.0,0.0,0.0,0.0,0.0
55.404,216,55,404000000,base_footprint,-1.8212142361461e-06,0.0015896502489399708,0.00010034918074453495,0.9999987314686012,0.0,0.0,0.0,0.0,0.0,0.0,0.0,0.0,0.0,-4.9059225409525686e-05,-0.00021121541792152129,7.88311708591896e-06,0.0,0.0,0.0,0.0,0.0,0.0,0.0,0.0,0.0,1.0027973754718056e-10,3.119396821334753e-10,8.286051969532809e-12,0.0,0.0,0.0,0.0,0.0,0.0,0.0,0.0,0.0
55.405,217,55,405000000,base_footprint,-1.8212171369418423e-06,0.0015896502489374021,0.00010035100613896817,0.999998731468418,0.0,0.0,0.0,0.0,0.0,0.0,0.0,0.0,0.0,-4.9059223824665933e-05,-0.00021121541836581687,7.88311899532761e-06,0.0,0.0,0.0,0.0,0.0,0.0,0.0,0.0,0.0,9.968762832857177e-11,3.101149301749666e-10,9.633971942195369e-12,0.0,0.0,0.0,0.0,0.0,0.0,0.0,0.0,0.0
55.406,218,55,406000000,base_footprint,-1.8212200377427547e-06,0.0015896502489348382,0.00010035283153352773,0.9999987314682348,0.0,0.0,0.0,0.0,0.0,0.0,0.0,0.0,0.0,-4.905922224050561e-05,-0.0002112154187889408,7.883120918365377e-06,0.0,0.0,0.0,0.0,0.0,0.0,0.0,0.0,0.0,1.0040259156185544e-10,3.1232254842157923e-10,1.03234010312102e-11,0.0,0.0,0.0,0.0,0.0,0.0,0.0,0.0,0.0
55.407,219,55,407000000,base_footprint,-1.8212229385429558e-06,0.0015896502489322682,0.00010035465692819451,0.9999987314680514,0.0,0.0,0.0,0.0,0.0,0.0,0.0,0.0,0.0,-4.905922064464251e-05,-0.0002112154192324301,7.883122803052848e-06,0.0,0.0,0.0,0.0,0.0,0.0,0.0,0.0,0.0,9.835313995808905e-11,3.061259675742824e-10,8.64933146932334e-12,0.0,0.0,0.0,0.0,0.0,0.0,0.0,0.0,0.0
55.408,220,55,408000000,base_footprint,-1.821225839335424e-06,0.0015896502489296986,0.00010035648232298099,0.9999987314678682,0.0,0.0,0.0,0.0,0.0,0.0,0.0,0.0,0.0,-4.905921903462587e-05,-0.00021121541966485788,7.883124712470157e-06,0.0,0.0,0.0,0.0,0.0,0.0,0.0,0.0,0.0,9.967147263686758e-11,3.101550762779353e-10,7.007015100560895e-12,0.0,0.0,0.0,0.0,0.0,0.0,0.0,0.0,0.0
55.409,221,55,409000000,base_footprint,-1.8212287401362445e-06,0.001589650248927136,0.00010035830771789208,0.999998731467685,0.0,0.0,0.0,0.0,0.0,0.0,0.0,0.0,0.0,-4.9059217456895494e-05,-0.00021121542008347292,7.883126632003746e-06,0.0,0.0,0.0,0.0,0.0,0.0,0.0,0.0,0.0,1.001991731810459e-10,3.1174487615747916e-10,7.490364919937044e-12,0.0,0.0,0.0,0.0,0.0,0.0,0.0,0.0,0.0
55.41,222,55,410000000,base_footprint,-1.821231640927053e-06,0.0015896502489245769,0.00010036013311292893,0.9999987314675018,0.0,0.0,0.0,0.0,0.0,0.0,0.0,0.0,0.0,-4.9059215842238585e-05,-0.00021121542050874914,7.883128553592312e-06,0.0,0.0,0.0,0.0,0.0,0.0,0.0,0.0,0.0,1.0032782518107977e-10,3.1213400294178096e-10,8.99211727552845e-12,0.0,0.0,0.0,0.0,0.0,0.0,0.0,0.0,0.0
55.411,223,55,411000000,base_footprint,-1.8212345417148523e-06,0.0015896502489220134,0.00010036195850806896,0.9999987314673187,0.0,0.0,0.0,0.0,0.0,0.0,0.0,0.0,0.0,-4.9059214241901704e-05,-0.00021121542095026125,7.883130430094275e-06,0.0,0.0,0.0,0.0,0.0,0.0,0.0,0.0,0.0,9.790937348828891e-11,3.0480640101691857e-10,8.211006483665733e-12,0.0,0.0,0.0,0.0,0.0,0.0,0.0,0.0,0.0
55.412,224,55,412000000,base_footprint,-1.8212374425072329e-06,0.0015896502489194516,0.0001003637839033321,0.9999987314671355,0.0,0.0,0.0,0.0,0.0,0.0,0.0,0.0,0.0,-4.9059212656632754e-05,-0.000211215421379057,7.883132346554545e-06,0.0,0.0,0.0,0.0,0.0,0.0,0.0,0.0,0.0,1.0004231290703791e-10,3.112587766019782e-10,6.808953139826273e-12,0.0,0.0,0.0,0.0,0.0,0.0,0.0,0.0,0.0
55.413,225,55,413000000,base_footprint,-1.8212403432984423e-06,0.0015896502489168934,0.00010036560929871568,0.9999987314669523,0.0,0.0,0.0,0.0,0.0,0.0,0.0,0.0,0.0,-4.9059211059748935e-05,-0.00021121542180449617,7.883134257656911e-06,0.0,0.0,0.0,0.0,0.0,0.0,0.0,0.0,0.0,9.97655074843777e-11,3.104077599613384e-10,1.0778144985726027e-11,0.0,0.0,0.0,0.0,0.0,0.0,0.0,0.0,0.0
55.414,226,55,414000000,base_footprint,-1.8212432440966145e-06,0.0015896502489143357,0.00010036743469421241,0.9999987314667691,0.0,0.0,0.0,0.0,0.0,0.0,0.0,0.0,0.0,-4.9059209479290575e-05,-0.00021121542223590493,7.883136154225952e-06,0.0,0.0,0.0,0.0,0.0,0.0,0.0,0.0,0.0,9.897455323013372e-11,3.080280038365855e-10,7.449251352919815e-12,0.0,0.0,0.0,0.0,0.0,0.0,0.0,0.0,0.0
55.415,227,55,415000000,base_footprint,-1.8212461448787413e-06,0.00158965024891177,0.00010036926008982614,0.9999987314665859,0.0,0.0,0.0,0.0,0.0,0.0,0.0,0.0,0.0,-4.905920785261489e-05,-0.0002112154226842093,7.883138058260715e-06,0.0,0.0,0.0,0.0,0.0,0.0,0.0,0.0,0.0,9.941263769261499e-11,3.093080688843547e-10,1.0835175675354551e-11,0.0,0.0,0.0,0.0,0.0,0.0,0.0,0.0,0.0
55.416,228,55,416000000,base_footprint,-1.82124904567647e-06,0.0015896502489091973,0.00010037108548556038,0.9999987314664027,0.0,0.0,0.0,0.0,0.0,0.0,0.0,0.0,0.0,-4.905920628947717e-05,-0.00021121542313123212,7.883139969696583e-06,0.0,0.0,0.0,0.0,0.0,0.0,0.0,0.0,0.0,9.978722405410842e-11,3.104106566623793e-10,7.052765532425006e-12,0.0,0.0,0.0,0.0,0.0,0.0,0.0,0.0,0.0
55.417,229,55,417000000,base_footprint,-1.8212519464835186e-06,0.0015896502489066331,0.00010037291088141844,0.9999987314662195,0.0,0.0,0.0,0.0,0.0,0.0,0.0,0.0,0.0,-4.9059204713520216e-05,-0.0002112154235460615,7.883141887668114e-06,0.0,0.0,0.0,0.0,0.0,0.0,0.0,0.0,0.0,1.0010916734643731e-10,3.1148900800817267e-10,6.939942336989023e-12,0.0,0.0,0.0,0.0,0.0,0.0,0.0,0.0,0.0
55.418,230,55,418000000,base_footprint,-1.82125484727644e-06,0.0015896502489040753,0.00010037473627739411,0.9999987314660362,0.0,0.0,0.0,0.0,0.0,0.0,0.0,0.0,0.0,-4.9059203090704334e-05,-0.0002112154239655051,7.883143792896298e-06,0.0,0.0,0.0,0.0,0.0,0.0,0.0,0.0,0.0,9.94363987527646e-11,3.0949542307760693e-10,7.360871154585416e-12,0.0,0.0,0.0,0.0,0.0,0.0,0.0,0.0,0.0
55.419,231,55,419000000,base_footprint,-1.8212577480679565e-06,0.0015896502489015107,0.00010037656167348176,0.9999987314658529,0.0,0.0,0.0,0.0,0.0,0.0,0.0,0.0,0.0,-4.9059201493579646e-05,-0.00021121542441150489,7.883145687086883e-06,0.0,0.0,0.0,0.0,0.0,0.0,0.0,0.0,0.0,9.887662566051417e-11,3.076678659135572e-10,1.1404252172820531e-11,0.0,0.0,0.0,0.0,0.0,0.0,0.0,0.0,0.0
55.42,232,55,420000000,base_footprint,-1.8212606488646699e-06,0.0015896502488989385,0.00010037838706969069,0.9999987314656698,0.0,0.0,0.0,0.0,0.0,0.0,0.0,0.0,0.0,-4.905919990947484e-05,-0.00021121542485981915,7.883147599965987e-06,0.0,0.0,0.0,0.0,0.0,0.0,0.0,0.0,0.0,9.988111309725819e-11,3.1067658440816767e-10,1.0643842822597757e-11,0.0,0.0,0.0,0.0,0.0,0.0,0.0,0.0,0.0
55.421,233,55,421000000,base_footprint,-1.821263549650775e-06,0.0015896502488963616,0.00010038021246602428,0.9999987314654866,0.0,0.0,0.0,0.0,0.0,0.0,0.0,0.0,0.0,-4.90591982936339e-05,-0.0002112154253017999,7.883149519261456e-06,0.0,0.0,0.0,0.0,0.0,0.0,0.0,0.0,0.0,1.002159471684784e-10,3.117642745972564e-10,7.356181430791009e-12,0.0,0.0,0.0,0.0,0.0,0.0,0.0,0.0,0.0
55.422,234,55,422000000,base_footprint,-1.8212664504466446e-06,0.0015896502488937916,0.00010038203786247691,0.9999987314653034,0.0,0.0,0.0,0.0,0.0,0.0,0.0,0.0,0.0,-4.905919671880386e-05,-0.00021121542571994677,7.883151427685604e-06,0.0,0.0,0.0,0.0,0.0,0.0,0.0,0.0,0.0,9.959831634167347e-11,3.099401958893007e-10,7.093205826143585e-12,0.0,0.0,0.0,0.0,0.0,0.0,0.0,0.0,0.0
55.423,235,55,423000000,base_footprint,-1.821269351243406e-06,0.0015896502488912238,0.00010038386325904586,0.9999987314651201,0.0,0.0,0.0,0.0,0.0,0.0,0.0,0.0,0.0,-4.9059195126006646e-05,-0.00021121542614773432,7.883153330581996e-06,0.0,0.0,0.0,0.0,0.0,0.0,0.0,0.0,0.0,9.931271306578828e-11,3.090719976321215e-10,7.017524789691076e-12,0.0,0.0,0.0,0.0,0.0,0.0,0.0,0.0,0.0
55.424,236,55,424000000,base_footprint,-1.821272252037988e-06,0.0015896502488886627,0.00010038568865573419,0.9999987314649368,0.0,0.0,0.0,0.0,0.0,0.0,0.0,0.0,0.0,-4.90591935271819e-05,-0.00021121542656686376,7.883155239486971e-06,0.0,0.0,0.0,0.0,0.0,0.0,0.0,0.0,0.0,9.963201216933701e-11,3.100547989729632e-10,8.008535413789165e-12,0.0,0.0,0.0,0.0,0.0,0.0,0.0,0.0,0.0
55.425,237,55,425000000,base_footprint,-1.8212751528302635e-06,0.0015896502488861055,0.00010038751405253859,0.9999987314647535,0.0,0.0,0.0,0.0,0.0,0.0,0.0,0.0,0.0,-4.905919192812416e-05,-0.00021121542699195747,7.883157141770996e-06,0.0,0.0,0.0,0.0,0.0,0.0,0.0,0.0,0.0,9.928145474439134e-11,3.089822827318702e-10,8.073425929530346e-12,0.0,0.0,0.0,0.0,0.0,0.0,0.0,0.0,0.0
55.426,238,55,426000000,base_footprint,-1.8212780536320233e-06,0.001589650248883545,0.00010038933944946725,0.9999987314645704,0.0,0.0,0.0,0.0,0.0,0.0,0.0,0.0,0.0,-4.905919035263799e-05,-0.00021121542743197697,7.883159060575621e-06,0.0,0.0,0.0,0.0,0.0,0.0,0.0,0.0,0.0,1.0018026185970933e-10,3.116235633445496e-10,7.363322445695132e-12,0.0,0.0,0.0,0.0,0.0,0.0,0.0,0.0,0.0
55.427,239,55,427000000,base_footprint,-1.8212809544277472e-06,0.0015896502488809857,0.00010039116484651077,0.9999987314643871,0.0,0.0,0.0,0.0,0.0,0.0,0.0,0.0,0.0,-4.9059188746000606e-05,-0.00021121542786140156,7.88316096047601e-06,0.0,0.0,0.0,0.0,0.0,0.0,0.0,0.0,0.0,9.916414225961673e-11,3.086074798833481e-10,9.757845915800753e-12,0.0,0.0,0.0,0.0,0.0,0.0,0.0,0.0,0.0
55.428,240,55,428000000,base_footprint,-1.821283855217618e-06,0.0015896502488784241,0.00010039299024367453,0.9999987314642038,0.0,0.0,0.0,0.0,0.0,0.0,0.0,0.0,0.0,-4.9059187139853214e-05,-0.00021121542829813803,7.883162871079873e-06,0.0,0.0,0.0,0.0,0.0,0.0,0.0,0.0,0.0,9.97439015351092e-11,3.103412812109883e-10,8.4623124608635e-12,0.0,0.0,0.0,0.0,0.0,0.0,0.0,0.0,0.0
55.429,241,55,429000000,base_footprint,-1.821286756026623e-06,0.001589650248875861,0.00010039481564094983,0.9999987314640205,0.0,0.0,0.0,0.0,0.0,0.0,0.0,0.0,0.0,-4.905918558376973e-05,-0.00021121542873331277,7.883164764673963e-06,0.0,0.0,0.0,0.0,0.0,0.0,0.0,0.0,0.0,9.881887620449112e-11,3.07508731197414e-10,9.00069379607848e-12,0.0,0.0,0.0,0.0,0.0,0.0,0.0,0.0,0.0
55.43,242,55,430000000,base_footprint,-1.8212896568244604e-06,0.001589650248873295,0.00010039664103834215,0.9999987314638372,0.0,0.0,0.0,0.0,0.0,0.0,0.0,0.0,0.0,-4.9059183966831175e-05,-0.0002112154291719912,7.883166668769459e-06,0.0,0.0,0.0,0.0,0.0,0.0,0.0,0.0,0.0,9.940006256306686e-11,3.093031896737223e-10,9.483039271565645e-12,0.0,0.0,0.0,0.0,0.0,0.0,0.0,0.0,0.0
55.431,243,55,431000000,base_footprint,-1.82129255762518e-06,0.0015896502488707313,0.00010039846643585147,0.9999987314636541,0.0,0.0,0.0,0.0,0.0,0.0,0.0,0.0,0.0,-4.905918237823594e-05,-0.00021121542960076862,7.883168572953274e-06,0.0,0.0,0.0,0.0,0.0,0.0,0.0,0.0,0.0,9.938035334858024e-11,3.092742134184089e-10,6.391497477283177e-12,0.0,0.0,0.0,0.0,0.0,0.0,0.0,0.0,0.0
55.432,244,55,432000000,base_footprint,-1.821295458422813e-06,0.0015896502488681656,0.00010040029183347938,0.9999987314634708,0.0,0.0,0.0,0.0,0.0,0.0,0.0,0.0,0.0,-4.905918077746564e-05,-0.0002112154300362136,7.883170480302283e-06,0.0,0.0,0.0,0.0,0.0,0.0,0.0,0.0,0.0,9.95628465369872e-11,3.098056135295115e-10,7.364106730302571e-12,0.0,0.0,0.0,0.0,0.0,0.0,0.0,0.0,0.0
55.433,245,55,433000000,base_footprint,-1.821298359217123e-06,0.0015896502488655987,0.00010040211723123205,0.9999987314632875,0.0,0.0,0.0,0.0,0.0,0.0,0.0,0.0,0.0,-4.905917917639594e-05,-0.00021121543047113674,7.883172400007162e-06,0.0,0.0,0.0,0.0,0.0,0.0,0.0,0.0,0.0,1.0023920189696163e-10,3.118082600004661e-10,1.0821858354452386e-11,0.0,0.0,0.0,0.0,0.0,0.0,0.0,0.0,0.0
55.434,246,55,434000000,base_footprint,-1.8213012600135842e-06,0.001589650248863034,0.00010040394262911072,0.9999987314631043,0.0,0.0,0.0,0.0,0.0,0.0,0.0,0.0,0.0,-4.905917758607891e-05,-0.0002112154308986452,7.88317432234827e-06,0.0,0.0,0.0,0.0,0.0,0.0,0.0,0.0,0.0,1.0037257111572475e-10,3.122188706340856e-10,1.0926953211420936e-11,0.0,0.0,0.0,0.0,0.0,0.0,0.0,0.0,0.0
55.435,247,55,435000000,base_footprint,-1.8213041608099728e-06,0.001589650248860464,0.00010040576802709453,0.999998731462921,0.0,0.0,0.0,0.0,0.0,0.0,0.0,0.0,0.0,-4.905917599157651e-05,-0.00021121543134228362,7.883176202853178e-06,0.0,0.0,0.0,0.0,0.0,0.0,0.0,0.0,0.0,9.812703286325983e-11,3.054462443906776e-10,8.5226517524031e-12,0.0,0.0,0.0,0.0,0.0,0.0,0.0,0.0,0.0
55.436,248,55,436000000,base_footprint,-1.8213070616079176e-06,0.0015896502488578978,0.00010040759342519775,0.9999987314627377,0.0,0.0,0.0,0.0,0.0,0.0,0.0,0.0,0.0,-4.905917440022565e-05,-0.00021121543176727897,7.883178111823857e-06,0.0,0.0,0.0,0.0,0.0,0.0,0.0,0.0,0.0,9.963365356507484e-11,3.1005435198989026e-10,6.097024629230516e-12,0.0,0.0,0.0,0.0,0.0,0.0,0.0,0.0,0.0
55.437,249,55,437000000,base_footprint,-1.8213099624173117e-06,0.0015896502488553295,0.00010040941882342514,0.9999987314625544,0.0,0.0,0.0,0.0,0.0,0.0,0.0,0.0,0.0,-4.905917282861635e-05,-0.0002112154322034758,7.88318003052435e-06,0.0,0.0,0.0,0.0,0.0,0.0,0.0,0.0,0.0,1.0016548690754522e-10,3.116005224493642e-10,5.7985528961366e-12,0.0,0.0,0.0,0.0,0.0,0.0,0.0,0.0,0.0
55.438,250,55,438000000,base_footprint,-1.8213128632179081e-06,0.001589650248852766,0.00010041124422176596,0.9999987314623711,0.0,0.0,0.0,0.0,0.0,0.0,0.0,0.0,0.0,-4.905917121646517e-05,-0.00021121543262662517,7.883181927445221e-06,0.0,0.0,0.0,0.0,0.0,0.0,0.0,0.0,0.0,9.899725318772417e-11,3.0813306624499327e-10,9.467797145029435e-12,0.0,0.0,0.0,0.0,0.0,0.0,0.0,0.0,0.0
55.439,251,55,439000000,base_footprint,-1.8213157640146306e-06,0.001589650248850204,0.00010041306962022162,0.9999987314621878,0.0,0.0,0.0,0.0,0.0,0.0,0.0,0.0,0.0,-4.905916961433791e-05,-0.000211215433056011,7.883183827297272e-06,0.0,0.0,0.0,0.0,0.0,0.0,0.0,0.0,0.0,9.915480951902779e-11,3.085930177086969e-10,8.014232526904725e-12,0.0,0.0,0.0,0.0,0.0,0.0,0.0,0.0,0.0
55.44,252,55,440000000,base_footprint,-1.8213186648159718e-06,0.0015896502488476495,0.00010041489501880637,0.9999987314620045,0.0,0.0,0.0,0.0,0.0,0.0,0.0,0.0,0.0,-4.905916802901211e-05,-0.00021121543347371344,7.883185755736961e-06,0.0,0.0,0.0,0.0,0.0,0.0,0.0,0.0,0.0,1.0067664614435282e-10,3.1319970643499313e-10,6.673062842028506e-12,0.0,0.0,0.0,0.0,0.0,0.0,0.0,0.0,0.0
55.441,253,55,441000000,base_footprint,-1.821321565614544e-06,0.0015896502488450905,0.00010041672041750424,0.9999987314618212,0.0,0.0,0.0,0.0,0.0,0.0,0.0,0.0,0.0,-4.905916642903995e-05,-0.00021121543391473642,7.883187652135432e-06,0.0,0.0,0.0,0.0,0.0,0.0,0.0,0.0,0.0,9.898631563736246e-11,3.0802973762185724e-10,9.826738931888113e-12,0.0,0.0,0.0,0.0,0.0,0.0,0.0,0.0,0.0
55.441,254,55,442000000,base_footprint,-1.821324466408676e-06,0.0015896502488425238,0.00010041854581632603,0.9999987314616379,0.0,0.0,0.0,0.0,0.0,0.0,0.0,0.0,0.0,-4.905916482564493e-05,-0.00021121543436302637,7.883189570142623e-06,0.0,0.0,0.0,0.0,0.0,0.0,0.0,0.0,0.0,1.001544274023449e-10,3.115368745221601e-10,8.666961279827538e-12,0.0,0.0,0.0,0.0,0.0,0.0,0.0,0.0,0.0
55.442,255,55,443000000,base_footprint,-1.8213273672023194e-06,0.0015896502488399586,0.00010042037121526051,0.9999987314614546,0.0,0.0,0.0,0.0,0.0,0.0,0.0,0.0,0.0,-4.905916323024359e-05,-0.00021121543479229698,7.883191465692875e-06,0.0,0.0,0.0,0.0,0.0,0.0,0.0,0.0,0.0,9.89263469225222e-11,3.07885402120441e-10,9.338182898975632e-12,0.0,0.0,0.0,0.0,0.0,0.0,0.0,0.0,0.0
55.444,256,55,444000000,base_footprint,-1.8213302680029285e-06,0.001589650248837401,0.0001004221966143135,0.9999987314612713,0.0,0.0,0.0,0.0,0.0,0.0,0.0,0.0,0.0,-4.9059161649669195e-05,-0.00021121543520946152,7.88319337304808e-06,0.0,0.0,0.0,0.0,0.0,0.0,0.0,0.0,0.0,9.95387957885836e-11,3.097760195673897e-10,6.64211452559326e-12,0.0,0.0,0.0,0.0,0.0,0.0,0.0,0.0,0.0
55.445,257,55,445000000,base_footprint,-1.8213331688019196e-06,0.0015896502488348368,0.00010042402201348641,0.999998731461088,0.0,0.0,0.0,0.0,0.0,0.0,0.0,0.0,0.0,-4.90591600519574e-05,-0.0002112154356549822,7.883195283064622e-06,0.0,0.0,0.0,0.0,0.0,0.0,0.0,0.0,0.0,9.972387221811488e-11,3.1023322587150986e-10,9.790368249840114e-12,0.0,0.0,0.0,0.0,0.0,0.0,0.0,0.0,0.0
55.445,258,55,446000000,base_footprint,-1.8213360695992859e-06,0.001589650248832272,0.00010042584741277958,0.9999987314609047,0.0,0.0,0.0,0.0,0.0,0.0,0.0,0.0,0.0,-4.905915845419077e-05,-0.0002112154360888504,7.883197193809977e-06,0.0,0.0,0.0,0.0,0.0,0.0,0.0,0.0,0.0,9.975058974173536e-11,3.103514121562316e-10,9.527592873145345e-12,0.0,0.0,0.0,0.0,0.0,0.0,0.0,0.0,0.0
55.446,259,55,447000000,base_footprint,-1.821338970406669e-06,0.0015896502488297033,0.00010042767281218915,0.9999987314607214,0.0,0.0,0.0,0.0,0.0,0.0,0.0,0.0,0.0,-4.90591568797881e-05,-0.00021121543652899866,7.883199096941527e-06,0.0,0.0,0.0,0.0,0.0,0.0,0.0,0.0,0.0,9.933755399027365e-11,3.090821078885314e-10,7.951253408342484e-12,0.0,0.0,0.0,0.0,0.0,0.0,0.0,0.0,0.0
55.448,260,55,448000000,base_footprint,-1.8213418712089003e-06,0.001589650248827137,0.00010042949821170489,0.9999987314605381,0.0,0.0,0.0,0.0,0.0,0.0,0.0,0.0,0.0,-4.905915527505365e-05,-0.00021121543695682622,7.883200979493919e-06,0.0,0.0,0.0,0.0,0.0,0.0,0.0,0.0,0.0,9.8228447278652e-11,3.0579368985882336e-10,1.0216666633689148e-11,0.0,0.0,0.0,0.0,0.0,0.0,0.0,0.0,0.0
55.449,261,55,449000000,base_footprint,-1.8213447720066933e-06,0.0015896502488245644,0.00010043132361135298,0.9999987314603546,0.0,0.0,0.0,0.0,0.0,0.0,0.0,0.0,0.0,-4.905915367154611e-05,-0.00021121543740110736,7.883202914385482e-06,0.0,0.0,0.0,0.0,0.0,0.0,0.0,0.0,0.0,1.0105907669383943e-10,3.142729739511465e-10,8.269104180240543e-12,0.0,0.0,0.0,0.0,0.0,0.0,0.0,0.0,0.0
55.45,262,55,450000000,base_footprint,-1.8213476728171712e-06,0.001589650248821994,0.0001004331490111121,0.9999987314601713,0.0,0.0,0.0,0.0,0.0,0.0,0.0,0.0,0.0,-4.905915210263197e-05,-0.00021121543783006255,7.883204806804815e-06,0.0,0.0,0.0,0.0,0.0,0.0,0.0,0.0,0.0,9.874779179008905e-11,3.073375759396369e-10,7.713213746788666e-12,0.0,0.0,0.0,0.0,0.0,0.0,0.0,0.0,0.0
55.45,263,55,451000000,base_footprint,-1.8213505736254131e-06,0.0015896502488194231,0.00010043497441098676,0.999998731459988,0.0,0.0,0.0,0.0,0.0,0.0,0.0,0.0,0.0,-4.905915050357741e-05,-0.00021121543826338625,7.88320670804017e-06,0.0,0.0,0.0,0.0,0.0,0.0,0.0,0.0,0.0,9.923163723994281e-11,3.088125634441839e-10,7.695386159936348e-12,0.0,0.0,0.0,0.0,0.0,0.0,0.0,0.0,0.0
55.452,264,55,452000000,base_footprint,-1.8213534744189241e-06,0.0015896502488168605,0.00010043679981098334,0.9999987314598047,0.0,0.0,0.0,0.0,0.0,0.0,0.0,0.0,0.0,-4.905914887958659e-05,-0.00021121543867908565,7.883208621790518e-06,0.0,0.0,0.0,0.0,0.0,0.0,0.0,0.0,0.0,9.988687120621658e-11,3.1087828302646744e-10,5.8117879243827005e-12,0.0,0.0,0.0,0.0,0.0,0.0,0.0,0.0,0.0
55.453,265,55,453000000,base_footprint,-1.821356375223837e-06,0.0015896502488142977,0.0001004386252111062,0.9999987314596214,0.0,0.0,0.0,0.0,0.0,0.0,0.0,0.0,0.0,-4.9059147307929715e-05,-0.0002112154391120454,7.883210544744673e-06,0.0,0.0,0.0,0.0,0.0,0.0,0.0,0.0,0.0,1.0039538053002043e-10,3.122898741563417e-10,7.047822534354552e-12,0.0,0.0,0.0,0.0,0.0,0.0,0.0,0.0,0.0
55.454,266,55,454000000,base_footprint,-1.8213592760193792e-06,0.0015896502488117468,0.000100440450611341,0.999998731459438,0.0,0.0,0.0,0.0,0.0,0.0,0.0,0.0,0.0,-4.905914569465774e-05,-0.00021121543952004113,7.883212438698047e-06,0.0,0.0,0.0,0.0,0.0,0.0,0.0,0.0,0.0,9.882072707229241e-11,3.0765389722606276e-10,8.98728373021741e-12,0.0,0.0,0.0,0.0,0.0,0.0,0.0,0.0,0.0
55.455,267,55,455000000,base_footprint,-1.8213621768192654e-06,0.0015896502488091883,0.0001004422760116889,0.9999987314592546,0.0,0.0,0.0,0.0,0.0,0.0,0.0,0.0,0.0,-4.905914410901109e-05,-0.00021121543996820502,7.883214335264947e-06,0.0,0.0,0.0,0.0,0.0,0.0,0.0,0.0,0.0,9.899946996229111e-11,3.0803569556845326e-10,9.840141211506251e-12,0.0,0.0,0.0,0.0,0.0,0.0,0.0,0.0,0.0
55.456,268,55,456000000,base_footprint,-1.8213650776183297e-06,0.001589650248806625,0.00010044410141216449,0.9999987314590713,0.0,0.0,0.0,0.0,0.0,0.0,0.0,0.0,0.0,-4.9059142512779856e-05,-0.0002112154404105506,7.883216260806449e-06,0.0,0.0,0.0,0.0,0.0,0.0,0.0,0.0,0.0,1.0055588513388362e-10,3.127466285695983e-10,9.419583867414747e-12,0.0,0.0,0.0,0.0,0.0,0.0,0.0,0.0,0.0
55.457,269,55,457000000,base_footprint,-1.8213679784359724e-06,0.0015896502488040587,0.00010044592681276575,0.999998731458888,0.0,0.0,0.0,0.0,0.0,0.0,0.0,0.0,0.0,-4.9059140955450836e-05,-0.00021121544084906223,7.883218182670026e-06,0.0,0.0,0.0,0.0,0.0,0.0,0.0,0.0,0.0,1.0034745136476786e-10,3.120911787340389e-10,9.40212931644618e-12,0.0,0.0,0.0,0.0,0.0,0.0,0.0,0.0,0.0
55.458,270,55,458000000,base_footprint,-1.821370879244051e-06,0.0015896502488014863,0.00010044775221347586,0.9999987314587045,0.0,0.0,0.0,0.0,0.0,0.0,0.0,0.0,0.0,-4.905913934174212e-05,-0.00021121544129354817,7.883220070350022e-06,0.0,0.0,0.0,0.0,0.0,0.0,0.0,0.0,0.0,9.851006862207118e-11,3.0663805127994613e-10,6.066498429886654e-12,0.0,0.0,0.0,0.0,0.0,0.0,0.0,0.0,0.0
55.459,271,55,459000000,base_footprint,-1.8213737800389783e-06,0.0015896502487989202,0.00010044957761431059,0.9999987314585211,0.0,0.0,0.0,0.0,0.0,0.0,0.0,0.0,0.0,-4.9059137720953395e-05,-0.00021121544171344957,7.883221989654773e-06,0.0,0.0,0.0,0.0,0.0,0.0,0.0,0.0,0.0,1.0020014479100745e-10,3.117736216755173e-10,9.117018605368969e-12,0.0,0.0,0.0,0.0,0.0,0.0,0.0,0.0,0.0
55.46,272,55,460000000,base_footprint,-1.8213766808380493e-06,0.001589650248796355,0.0001004514030152656,0.9999987314583377,0.0,0.0,0.0,0.0,0.0,0.0,0.0,0.0,0.0,-4.905913613476363e-05,-0.00021121544214399208,7.88322390049433e-06,0.0,0.0,0.0,0.0,0.0,0.0,0.0,0.0,0.0,9.975133471907289e-11,3.1034889347028487e-10,9.785259189012409e-12,0.0,0.0,0.0,0.0,0.0,0.0,0.0,0.0,0.0
55.461,273,55,461000000,base_footprint,-1.8213795816314304e-06,0.001589650248793795,0.00010045322841633664,0.9999987314581545,0.0,0.0,0.0,0.0,0.0,0.0,0.0,0.0,0.0,-4.905913452892111e-05,-0.00021121544256688343,7.88322580261547e-06,0.0,0.0,0.0,0.0,0.0,0.0,0.0,0.0,0.0,9.926899582962687e-11,3.0896628013932626e-10,7.312480452588735e-12,0.0,0.0,0.0,0.0,0.0,0.0,0.0,0.0,0.0
55.463,274,55,462000000,base_footprint,-1.8213824824339833e-06,0.0015896502487912302,0.00010045505381752041,0.9999987314579711,0.0,0.0,0.0,0.0,0.0,0.0,0.0,0.0,0.0,-4.9059132952887156e-05,-0.000211215443008223,7.88322769852685e-06,0.0,0.0,0.0,0.0,0.0,0.0,0.0,0.0,0.0,9.895637257457771e-11,3.0791491233293747e-10,1.011122217727722e-11,0.0,0.0,0.0,0.0,0.0,0.0,0.0,0.0,0.0
55.463,275,55,463000000,base_footprint,-1.8213853832399647e-06,0.0015896502487886591,0.00010045687921882699,0.9999987314577877,0.0,0.0,0.0,0.0,0.0,0.0,0.0,0.0,0.0,-4.9059131365182674e-05,-0.00021121544345324082,7.883229614307742e-06,0.0,0.0,0.0,0.0,0.0,0.0,0.0,0.0,0.0,1.0001876489272247e-10,3.111520769672143e-10,5.570002516450403e-12,0.0,0.0,0.0,0.0,0.0,0.0,0.0,0.0,0.0
55.465,276,55,464000000,base_footprint,-1.8213882840443184e-06,0.0015896502487860976,0.0001004587046202498,0.9999987314576043,0.0,0.0,0.0,0.0,0.0,0.0,0.0,0.0,0.0,-4.9059129767456484e-05,-0.00021121544386646542,7.883231516981986e-06,0.0,0.0,0.0,0.0,0.0,0.0,0.0,0.0,0.0,9.928928657263784e-11,3.090433694731743e-10,7.738685416788685e-12,0.0,0.0,0.0,0.0,0.0,0.0,0.0,0.0,0.0
55.465,277,55,465000000,base_footprint,-1.8213911848508563e-06,0.0015896502487835356,0.00010046053002179621,0.9999987314574209,0.0,0.0,0.0,0.0,0.0,0.0,0.0,0.0,0.0,-4.90591281772926e-05,-0.00021121544430004898,7.883233434459675e-06,0.0,0.0,0.0,0.0,0.0,0.0,0.0,0.0,0.0,1.0011006168196064e-10,3.1143079404469914e-10,9.016556348274715e-12,0.0,0.0,0.0,0.0,0.0,0.0,0.0,0.0,0.0
55.466,278,55,466000000,base_footprint,-1.8213940856549027e-06,0.0015896502487809678,0.00010046235542345997,0.9999987314572375,0.0,0.0,0.0,0.0,0.0,0.0,0.0,0.0,0.0,-4.905912657786763e-05,-0.00021121544474421582,7.883235339335158e-06,0.0,0.0,0.0,0.0,0.0,0.0,0.0,0.0,0.0,9.945072093338e-11,3.094026624124962e-10,1.1325644449001923e-11,0.0,0.0,0.0,0.0,0.0,0.0,0.0,0.0,0.0
55.467,279,55,467000000,base_footprint,-1.8213969864584732e-06,0.0015896502487784008,0.000100464180825239,0.9999987314570541,0.0,0.0,0.0,0.0,0.0,0.0,0.0,0.0,0.0,-4.9059124982412954e-05,-0.0002112154451747183,7.883237240114575e-06,0.0,0.0,0.0,0.0,0.0,0.0,0.0,0.0,0.0,9.92004580842354e-11,3.087330332666273e-10,6.647754705139914e-12,0.0,0.0,0.0,0.0,0.0,0.0,0.0,0.0,0.0
55.468,280,55,468000000,base_footprint,-1.8213998872730902e-06,0.0015896502487758415,0.00010046600622712836,0.9999987314568709,0.0,0.0,0.0,0.0,0.0,0.0,0.0,0.0,0.0,-4.905912341011854e-05,-0.00021121544559263292,7.88323913108679e-06,0.0,0.0,0.0,0.0,0.0,0.0,0.0,0.0,0.0,9.86551934300468e-11,3.071087939784456e-10,6.691162158990097e-12,0.0,0.0,0.0,0.0,0.0,0.0,0.0,0.0,0.0
55.469,281,55,469000000,base_footprint,-1.8214027880759592e-06,0.0015896502487732721,0.00010046783162913407,0.9999987314566875,0.0,0.0,0.0,0.0,0.0,0.0,0.0,0.0,0.0,-4.905912179210748e-05,-0.0002112154460445248,7.883241033908467e-06,0.0,0.0,0.0,0.0,0.0,0.0,0.0,0.0,0.0,9.935260866181647e-11,3.090984293266165e-10,1.1953571501501696e-11,0.0,0.0,0.0,0.0,0.0,0.0,0.0,0.0,0.0
55.47,282,55,470000000,base_footprint,-1.821405688881886e-06,0.0015896502487706995,0.00010046965703127008,0.9999987314565041,0.0,0.0,0.0,0.0,0.0,0.0,0.0,0.0,0.0,-4.905912020370225e-05,-0.00021121544648352916,7.88324296478795e-06,0.0,0.0,0.0,0.0,0.0,0.0,0.0,0.0,0.0,1.0083379056728766e-10,3.1359961932017044e-10,7.816359952425651e-12,0.0,0.0,0.0,0.0,0.0,0.0,0.0,0.0,0.0
55.471,283,55,471000000,base_footprint,-1.8214085896831602e-06,0.0015896502487681306,0.00010047148243351908,0.9999987314563207,0.0,0.0,0.0,0.0,0.0,0.0,0.0,0.0,0.0,-4.905911859984347e-05,-0.00021121544690854387,7.883244860871576e-06,0.0,0.0,0.0,0.0,0.0,0.0,0.0,0.0,0.0,9.8946059629804e-11,3.079847450428653e-10,7.438533715711072e-12,0.0,0.0,0.0,0.0,0.0,0.0,0.0,0.0,0.0
55.472,284,55,472000000,base_footprint,-1.821411490489423e-06,0.0015896502487655754,0.00010047330783589412,0.9999987314561373,0.0,0.0,0.0,0.0,0.0,0.0,0.0,0.0,0.0,-4.905911701537916e-05,-0.0002112154473135349,7.883246783178954e-06,0.0,0.0,0.0,0.0,0.0,0.0,0.0,0.0,0.0,1.0033055651506132e-10,3.12204729963718e-10,5.871324781301938e-12,0.0,0.0,0.0,0.0,0.0,0.0,0.0,0.0,0.0
55.473,285,55,473000000,base_footprint,-1.821414391288456e-06,0.0015896502487630201,0.00010047513323837406,0.9999987314559539,0.0,0.0,0.0,0.0,0.0,0.0,0.0,0.0,0.0,-4.905911540648547e-05,-0.00021121544774601122,7.883248663088998e-06,0.0,0.0,0.0,0.0,0.0,0.0,0.0,0.0,0.0,9.808457601560232e-11,3.0537163831214827e-10,7.994838757126403e-12,0.0,0.0,0.0,0.0,0.0,0.0,0.0,0.0,0.0
55.474,286,55,474000000,base_footprint,-1.821417292087186e-06,0.0015896502487604582,0.00010047695864098286,0.9999987314557705,0.0,0.0,0.0,0.0,0.0,0.0,0.0,0.0,0.0,-4.905911381132035e-05,-0.000211215448191837,7.883250591050691e-06,0.0,0.0,0.0,0.0,0.0,0.0,0.0,0.0,0.0,1.0068788733441154e-10,3.13137511303594e-10,9.035908724775824e-12,0.0,0.0,0.0,0.0,0.0,0.0,0.0,0.0,0.0
55.475,287,55,475000000,base_footprint,-1.8214201928940308e-06,0.0015896502487578997,0.0001004787840437153,0.999998731455587,0.0,0.0,0.0,0.0,0.0,0.0,0.0,0.0,0.0,-4.90591122330777e-05,-0.0002112154486175302,7.88325250860573e-06,0.0,0.0,0.0,0.0,0.0,0.0,0.0,0.0,0.0,1.0009806555817714e-10,3.114249194014302e-10,6.9709927925371005e-12,0.0,0.0,0.0,0.0,0.0,0.0,0.0,0.0,0.0
55.476,288,55,476000000,base_footprint,-1.821423093695966e-06,0.0015896502487553336,0.00010048060944656858,0.9999987314554036,0.0,0.0,0.0,0.0,0.0,0.0,0.0,0.0,0.0,-4.9059110628676676e-05,-0.00021121544906506728,7.88325442055973e-06,0.0,0.0,0.0,0.0,0.0,0.0,0.0,0.0,0.0,9.984425336489988e-11,3.1055725949355904e-10,1.3798699616318452e-11,0.0,0.0,0.0,0.0,0.0,0.0,0.0,0.0,0.0
55.477,289,55,477000000,base_footprint,-1.8214259945068786e-06,0.0015896502487527623,0.00010048243484953108,0.9999987314552202,0.0,0.0,0.0,0.0,0.0,0.0,0.0,0.0,0.0,-4.905910905231473e-05,-0.00021121544950793836,7.883256309343821e-06,0.0,0.0,0.0,0.0,0.0,0.0,0.0,0.0,0.0,9.857043677844214e-11,3.0676021321391694e-10,8.922901731394824e-12,0.0,0.0,0.0,0.0,0.0,0.0,0.0,0.0,0.0
55.478,290,55,478000000,base_footprint,-1.8214288953190453e-06,0.001589650248750195,0.0001004842602526111,0.9999987314550368,0.0,0.0,0.0,0.0,0.0,0.0,0.0,0.0,0.0,-4.905910746028006e-05,-0.0002112154499320023,7.883258214559025e-06,0.0,0.0,0.0,0.0,0.0,0.0,0.0,0.0,0.0,9.94301385374511e-11,3.094467904376427e-10,6.0153825624937465e-12,0.0,0.0,0.0,0.0,0.0,0.0,0.0,0.0,0.0
55.479,291,55,479000000,base_footprint,-1.8214317961332446e-06,0.001589650248747628,0.00010048608565581415,0.9999987314548534,0.0,0.0,0.0,0.0,0.0,0.0,0.0,0.0,0.0,-4.9059105869807664e-05,-0.00021121545036479562,7.883260130854984e-06,0.0,0.0,0.0,0.0,0.0,0.0,0.0,0.0,0.0,1.0004365264520687e-10,3.112397799898436e-10,8.410425060272759e-12,0.0,0.0,0.0,0.0,0.0,0.0,0.0,0.0,0.0
55.48,292,55,480000000,base_footprint,-1.821434696937366e-06,0.001589650248745059,0.0001004879110591436,0.9999987314546698,0.0,0.0,0.0,0.0,0.0,0.0,0.0,0.0,0.0,-4.905910425506608e-05,-0.00021121545079963897,7.883262053821257e-06,0.0,0.0,0.0,0.0,0.0,0.0,0.0,0.0,0.0,1.0041336959055746e-10,3.1235732684625433e-10,9.562699822481447e-12,0.0,0.0,0.0,0.0,0.0,0.0,0.0,0.0,0.0
55.481,293,55,481000000,base_footprint,-1.8214375977449629e-06,0.001589650248742497,0.00010048973646258501,0.9999987314544864,0.0,0.0,0.0,0.0,0.0,0.0,0.0,0.0,0.0,-4.905910266761348e-05,-0.00021121545121922938,7.88326394795836e-06,0.0,0.0,0.0,0.0,0.0,0.0,0.0,0.0,0.0,9.88317568685125e-11,3.0764449573236147e-10,7.153155505585616e-12,0.0,0.0,0.0,0.0,0.0,0.0,0.0,0.0,0.0
55.482,294,55,482000000,base_footprint,-1.8214404985561506e-06,0.0015896502487399357,0.00010049156186614853,0.999998731454303,0.0,0.0,0.0,0.0,0.0,0.0,0.0,0.0,0.0,-4.90591010802482e-05,-0.00021121545165026477,7.883265862435513e-06,0.0,0.0,0.0,0.0,0.0,0.0,0.0,0.0,0.0,9.994500984709909e-11,3.1094039434313915e-10,8.96690449598613e-12,0.0,0.0,0.0,0.0,0.0,0.0,0.0,0.0,0.0
55.483,295,55,483000000,base_footprint,-1.8214433993598658e-06,0.001589650248737377,0.00010049338726983071,0.9999987314541195,0.0,0.0,0.0,0.0,0.0,0.0,0.0,0.0,0.0,-4.905909947082731e-05,-0.00021121545207745097,7.88326776980975e-06,0.0,0.0,0.0,0.0,0.0,0.0,0.0,0.0,0.0,9.955726236031426e-11,3.098228562480865e-10,7.372255789969147e-12,0.0,0.0,0.0,0.0,0.0,0.0,0.0,0.0,0.0
55.484,296,55,484000000,base_footprint,-1.8214463001630967e-06,0.0015896502487348107,0.00010049521267362419,0.9999987314539361,0.0,0.0,0.0,0.0,0.0,0.0,0.0,0.0,0.0,-4.905909787545778e-05,-0.00021121545252517112,7.883269662641538e-06,0.0,0.0,0.0,0.0,0.0,0.0,0.0,0.0,0.0,9.879481015496404e-11,3.0744511393719323e-10,8.36801322710286e-12,0.0,0.0,0.0,0.0,0.0,0.0,0.0,0.0,0.0
55.485,297,55,485000000,base_footprint,-1.821449200975984e-06,0.001589650248732251,0.00010049703807752796,0.9999987314537527,0.0,0.0,0.0,0.0,0.0,0.0,0.0,0.0,0.0,-4.905909630039718e-05,-0.00021121545294478758,7.883271553532706e-06,0.0,0.0,0.0,0.0,0.0,0.0,0.0,0.0,0.0,9.865451626179424e-11,3.0709981110171957e-10,7.154046415147179e-12,0.0,0.0,0.0,0.0,0.0,0.0,0.0,0.0,0.0
55.486,298,55,486000000,base_footprint,-1.8214521017884615e-06,0.001589650248729693,0.00010049886348154939,0.9999987314535693,0.0,0.0,0.0,0.0,0.0,0.0,0.0,0.0,0.0,-4.905909470504706e-05,-0.00021121545337320758,7.883273459050254e-06,0.0,0.0,0.0,0.0,0.0,0.0,0.0,0.0,0.0,9.94546907225278e-11,3.095007353923303e-10,7.022302775637986e-12,0.0,0.0,0.0,0.0,0.0,0.0,0.0,0.0,0.0
55.487,299,55,487000000,base_footprint,-1.8214550025882744e-06,0.001589650248727132,0.00010050068888569215,0.9999987314533858,0.0,0.0,0.0,0.0,0.0,0.0,0.0,0.0,0.0,-4.905909308512616e-05,-0.00021121545381170195,7.883275371825695e-06,0.0,0.0,0.0,0.0,0.0,0.0,0.0,0.0,0.0,9.987862716373657e-11,3.107141142276853e-10,1.2776615537202813e-11,0.0,0.0,0.0,0.0,0.0,0.0,0.0,0.0,0.0
55.488,300,55,488000000,base_footprint,-1.8214579033947327e-06,0.001589650248724568,0.00010050251428995015,0.9999987314532023,0.0,0.0,0.0,0.0,0.0,0.0,0.0,0.0,0.0,-4.905909150405449e-05,-0.00021121545424972958,7.883277272665208e-06,0.0,0.0,0.0,0.0,0.0,0.0,0.0,0.0,0.0,9.921400538094437e-11,3.0872082019451646e-10,8.278996887920087e-12,0.0,0.0,0.0,0.0,0.0,0.0,0.0,0.0,0.0
55.489,301,55,489000000,base_footprint,-1.8214608042079305e-06,0.001589650248721998,0.00010050433969432742,0.9999987314530189,0.0,0.0,0.0,0.0,0.0,0.0,0.0,0.0,0.0,-4.905908992300435e-05,-0.0002112154546947561,7.883279181448029e-06,0.0,0.0,0.0,0.0,0.0,0.0,0.0,0.0,0.0,9.964065109931995e-11,3.100079840699939e-10,5.648106525538777e-12,0.0,0.0,0.0,0.0,0.0,0.0,0.0,0.0,0.0
55.49,302,55,490000000,base_footprint,-1.821463705004207e-06,0.001589650248719429,0.00010050616509883074,0.9999987314528355,0.0,0.0,0.0,0.0,0.0,0.0,0.0,0.0,0.0,-4.905908829457491e-05,-0.00021121545512575919,7.883281103545935e-06,0.0,0.0,0.0,0.0,0.0,0.0,0.0,0.0,0.0,1.0036823226298884e-10,3.122376630534146e-10,1.0662643679337736e-11,0.0,0.0,0.0,0.0,0.0,0.0,0.0,0.0,0.0
55.491,303,55,491000000,base_footprint,-1.821466605817334e-06,0.0015896502487168617,0.00010050799050345912,0.999998731452652,0.0,0.0,0.0,0.0,0.0,0.0,0.0,0.0,0.0,-4.905908673384173e-05,-0.0002112154555540473,7.88328302415724e-06,0.0,0.0,0.0,0.0,0.0,0.0,0.0,0.0,0.0,1.0026270911610253e-10,3.1189356648498447e-10,7.117526639910983e-12,0.0,0.0,0.0,0.0,0.0,0.0,0.0,0.0,0.0
55.492,304,55,492000000,base_footprint,-1.821469506637755e-06,0.0015896502487142935,0.0001005098159081929,0.9999987314524684,0.0,0.0,0.0,0.0,0.0,0.0,0.0,0.0,0.0,-4.905908515397917e-05,-0.00021121545598873633,7.883284905281193e-06,0.0,0.0,0.0,0.0,0.0,0.0,0.0,0.0,0.0,9.81519921816656e-11,3.0552424495811e-10,9.546152003356262e-12,0.0,0.0,0.0,0.0,0.0,0.0,0.0,0.0,0.0
55.493,305,55,493000000,base_footprint,-1.8214724074385179e-06,0.0015896502487117313,0.0001005116413130572,0.9999987314522849,0.0,0.0,0.0,0.0,0.0,0.0,0.0,0.0,0.0,-4.905908351997635e-05,-0.0002112154564091697,7.88328683619372e-06,0.0,0.0,0.0,0.0,0.0,0.0,0.0,0.0,0.0,1.0082550563482998e-10,3.1367465887876194e-10,8.208618358754614e-12,0.0,0.0,0.0,0.0,0.0,0.0,0.0,0.0,0.0
55.497,306,55,494000000,base_footprint,-1.8214753082471511e-06,0.0015896502487091734,0.00010051346671803323,0.9999987314521014,0.0,0.0,0.0,0.0,0.0,0.0,0.0,0.0,0.0,-4.905908194139424e-05,-0.00021121545683291907,7.883288729963375e-06,0.0,0.0,0.0,0.0,0.0,0.0,0.0,0.0,0.0,9.881409296684303e-11,3.075712705376858e-10,6.923529293666316e-12,0.0,0.0,0.0,0.0,0.0,0.0,0.0,0.0,0.0
55.497,308,55,496000000,base_footprint,-1.8214811098609444e-06,0.0015896502487040536,0.00010051711752833393,0.9999987314517343,0.0,0.0,0.0,0.0,0.0,0.0,0.0,0.0,0.0,-4.905907874521407e-05,-0.00021121545770969692,7.883292542923607e-06,0.0,0.0,0.0,0.0,0.0,0.0,0.0,0.0,0.0,1.001616230005137e-10,3.115403425579014e-10,1.0528407535306396e-11,0.0,0.0,0.0,0.0,0.0,0.0,0.0,0.0,0.0
55.497,309,55,497000000,base_footprint,-1.821484010663775e-06,0.001589650248701487,0.00010051894293366752,0.999998731451551,0.0,0.0,0.0,0.0,0.0,0.0,0.0,0.0,0.0,-4.905907714629908e-05,-0.00021121545814849007,7.883294455604206e-06,0.0,0.0,0.0,0.0,0.0,0.0,0.0,0.0,0.0,9.986058771260257e-11,3.1066660366234663e-10,9.691987075401906e-12,0.0,0.0,0.0,0.0,0.0,0.0,0.0,0.0,0.0
55.497,310,55,498000000,base_footprint,-1.82148691147957e-06,0.0015896502486989175,0.00010052076833912108,0.9999987314513675,0.0,0.0,0.0,0.0,0.0,0.0,0.0,0.0,0.0,-4.90590755777662e-05,-0.00021121545858623824,7.883296366049849e-06,0.0,0.0,0.0,0.0,0.0,0.0,0.0,0.0,0.0,9.972817862041918e-11,3.102583740219218e-10,7.975214474760908e-12,0.0,0.0,0.0,0.0,0.0,0.0,0.0,0.0,0.0
55.497,311,55,499000000,base_footprint,-1.8214898123022946e-06,0.0015896502486963484,0.00010052259374468429,0.999998731451184,0.0,0.0,0.0,0.0,0.0,0.0,0.0,0.0,0.0,-4.90590739971627e-05,-0.0002112154590175781,7.883298255652628e-06,0.0,0.0,0.0,0.0,0.0,0.0,0.0,0.0,0.0,9.859482630515118e-11,3.068993072715251e-10,6.15412313670095e-12,0.0,0.0,0.0,0.0,0.0,0.0,0.0,0.0,0.0
55.5,312,55,500000000,base_footprint,-1.8214927131078072e-06,0.0015896502486937854,0.00010052441915036526,0.9999987314510005,0.0,0.0,0.0,0.0,0.0,0.0,0.0,0.0,0.0,-4.9059072368155765e-05,-0.0002112154594380571,7.883300161042976e-06,0.0,0.0,0.0,0.0,0.0,0.0,0.0,0.0,0.0,9.944492982157573e-11,3.09531379080874e-10,6.829378556316609e-12,0.0,0.0,0.0,0.0,0.0,0.0,0.0,0.0,0.0
55.501,313,55,501000000,base_footprint,-1.8214956139205835e-06,0.0015896502486912182,0.00010052624455617268,0.999998731450817,0.0,0.0,0.0,0.0,0.0,0.0,0.0,0.0,0.0,-4.9059070788305914e-05,-0.00021121545987882792,7.883302084358749e-06,0.0,0.0,0.0,0.0,0.0,0.0,0.0,0.0,0.0,1.0043565214126604e-10,3.1236108525527566e-10,1.0776548433334025e-11,0.0,0.0,0.0,0.0,0.0,0.0,0.0,0.0,0.0
55.502,314,55,502000000,base_footprint,-1.8214985147279972e-06,0.0015896502486886593,0.0001005280699620944,0.9999987314506334,0.0,0.0,0.0,0.0,0.0,0.0,0.0,0.0,0.0,-4.9059069182981296e-05,-0.00021121546029455188,7.883303983071681e-06,0.0,0.0,0.0,0.0,0.0,0.0,0.0,0.0,0.0,9.9082455643958e-11,3.084130128463118e-10,8.653542474353805e-12,0.0,0.0,0.0,0.0,0.0,0.0,0.0,0.0,0.0
55.503,315,55,503000000,base_footprint,-1.8215014155365274e-06,0.0015896502486860973,0.000100529895368136,0.9999987314504499,0.0,0.0,0.0,0.0,0.0,0.0,0.0,0.0,0.0,-4.9059067590753834e-05,-0.00021121546073351504,7.88330589309809e-06,0.0,0.0,0.0,0.0,0.0,0.0,0.0,0.0,0.0,9.971485670097265e-11,3.1022660802858667e-10,9.274280006597492e-12,0.0,0.0,0.0,0.0,0.0,0.0,0.0,0.0,0.0
55.504,316,55,504000000,base_footprint,-1.8215043163456454e-06,0.0015896502486835286,0.00010053172077429377,0.9999987314502664,0.0,0.0,0.0,0.0,0.0,0.0,0.0,0.0,0.0,-4.905906599743757e-05,-0.00021121546117938895,7.883307795640443e-06,0.0,0.0,0.0,0.0,0.0,0.0,0.0,0.0,0.0,9.931589567583587e-11,3.090153001953833e-10,8.299752785177346e-12,0.0,0.0,0.0,0.0,0.0,0.0,0.0,0.0,0.0
55.504,317,55,505000000,base_footprint,-1.8215072171603582e-06,0.0015896502486809575,0.00010053354618057866,0.9999987314500829,0.0,0.0,0.0,0.0,0.0,0.0,0.0,0.0,0.0,-4.905906441407429e-05,-0.00021121546161654035,7.883309720183633e-06,0.0,0.0,0.0,0.0,0.0,0.0,0.0,0.0,0.0,1.004835592815644e-10,3.1256539490625257e-10,6.037140690259655e-12,0.0,0.0,0.0,0.0,0.0,0.0,0.0,0.0,0.0
55.505,318,55,506000000,base_footprint,-1.8215101179730331e-06,0.001589650248678388,0.00010053537158698283,0.9999987314498994,0.0,0.0,0.0,0.0,0.0,0.0,0.0,0.0,0.0,-4.905906281548242e-05,-0.00021121546204568817,7.883311628962944e-06,0.0,0.0,0.0,0.0,0.0,0.0,0.0,0.0,0.0,9.964319686419998e-11,3.10033793818676e-10,1.0455637628700526e-11,0.0,0.0,0.0,0.0,0.0,0.0,0.0,0.0,0.0
55.507,319,55,507000000,base_footprint,-1.8215130187867198e-06,0.0015896502486758123,0.00010053719699350422,0.9999987314497158,0.0,0.0,0.0,0.0,0.0,0.0,0.0,0.0,0.0,-4.905906122305384e-05,-0.0002112154624904148,7.883313533676661e-06,0.0,0.0,0.0,0.0,0.0,0.0,0.0,0.0,0.0,9.943676779319305e-11,3.093659658119336e-10,9.994891678723744e-12,0.0,0.0,0.0,0.0,0.0,0.0,0.0,0.0,0.0
55.508,320,55,508000000,base_footprint,-1.82151591959937e-06,0.0015896502486732506,0.00010053902240014475,0.9999987314495323,0.0,0.0,0.0,0.0,0.0,0.0,0.0,0.0,0.0,-4.9059059626405e-05,-0.00021121546289506487,7.883315442100838e-06,0.0,0.0,0.0,0.0,0.0,0.0,0.0,0.0,0.0,9.95821223490772e-11,3.099736959030149e-10,5.306699500832747e-12,0.0,0.0,0.0,0.0,0.0,0.0,0.0,0.0,0.0
55.509,321,55,509000000,base_footprint,-1.8215188204196575e-06,0.0015896502486706966,0.00010054084780690887,0.9999987314493488,0.0,0.0,0.0,0.0,0.0,0.0,0.0,0.0,0.0,-4.9059058047178764e-05,-0.00021121546331207954,7.883317359549216e-06,0.0,0.0,0.0,0.0,0.0,0.0,0.0,0.0,0.0,1.0008002168336122e-10,3.1140938915140144e-10,5.943966637017751e-12,0.0,0.0,0.0,0.0,0.0,0.0,0.0,0.0,0.0
55.509,322,55,510000000,base_footprint,-1.821521721232733e-06,0.0015896502486681412,0.00010054267321378017,0.9999987314491653,0.0,0.0,0.0,0.0,0.0,0.0,0.0,0.0,0.0,-4.905905643831356e-05,-0.0002112154637474265,7.883319244015552e-06,0.0,0.0,0.0,0.0,0.0,0.0,0.0,0.0,0.0,9.833543930385724e-11,3.0610994289134214e-10,8.816497723609978e-12,0.0,0.0,0.0,0.0,0.0,0.0,0.0,0.0,0.0
55.509,323,55,511000000,base_footprint,-1.8215246220343766e-06,0.0015896502486655779,0.00010054449862077242,0.9999987314489818,0.0,0.0,0.0,0.0,0.0,0.0,0.0,0.0,0.0,-4.905905482096966e-05,-0.00021121546419548666,7.883321155965652e-06,0.0,0.0,0.0,0.0,0.0,0.0,0.0,0.0,0.0,9.983306992955678e-11,3.1057673773052823e-10,9.702727208791882e-12,0.0,0.0,0.0,0.0,0.0,0.0,0.0,0.0,0.0
