Time,header.seq,header.stamp.secs,header.stamp.nsecs,header.frame_id,orientation.x,orientation.y,orientation.z,orientation.w,orientation_covariance_0,orientation_covariance_1,orientation_covariance_2,orientation_covariance_3,orientation_covariance_4,orientation_covariance_5,orientation_covariance_6,orientation_covariance_7,orientation_covariance_8,angular_velocity.x,angular_velocity.y,angular_velocity.z,angular_velocity_covariance_0,angular_velocity_covariance_1,angular_velocity_covariance_2,angular_velocity_covariance_3,angular_velocity_covariance_4,angular_velocity_covariance_5,angular_velocity_covariance_6,angular_velocity_covariance_7,angular_velocity_covariance_8,linear_acceleration.x,linear_acceleration.y,linear_acceleration.z,linear_acceleration_covariance_0,linear_acceleration_covariance_1,linear_acceleration_covariance_2,linear_acceleration_covariance_3,linear_acceleration_covariance_4,linear_acceleration_covariance_5,linear_acceleration_covariance_6,linear_acceleration_covariance_7,linear_acceleration_covariance_8
1796.593,0,1796,586000000,base_footprint,-7.267208551198548e-06,0.0015896377413850353,0.0035291664712975993,0.9999925089634706,0.0,0.0,0.0,0.0,0.0,0.0,0.0,0.0,0.0,-4.581616917866636e-05,-0.00021190606190957316,1.1819437117051134e-05,0.0,0.0,0.0,0.0,0.0,0.0,0.0,0.0,0.0,-6.124120620432483e-09,-1.572619327928265e-08,5.2819099426952566e-06,0.0,0.0,0.0,0.0,0.0,0.0,0.0,0.0,0.0
1796.593,1,1796,587000000,base_footprint,-7.26721208923777e-06,0.0015896377413724596,0.003529168700158636,0.9999925089556045,0.0,0.0,0.0,0.0,0.0,0.0,0.0,0.0,0.0,-4.581616748766103e-05,-0.00021190606238045986,1.181943950980542e-05,0.0,0.0,0.0,0.0,0.0,0.0,0.0,0.0,0.0,1.1805947293562291e-10,3.877683922583411e-10,-1.858105870477242e-11,0.0,0.0,0.0,0.0,0.0,0.0,0.0,0.0,0.0
1796.593,2,1796,588000000,base_footprint,-7.267215627277935e-06,0.0015896377413598898,0.003529170929019867,0.9999925089477385,0.0,0.0,0.0,0.0,0.0,0.0,0.0,0.0,0.0,-4.581616580487228e-05,-0.0002119060628481201,1.1819441942689763e-05,0.0,0.0,0.0,0.0,0.0,0.0,0.0,0.0,0.0,1.2010392239900216e-10,3.942995840283354e-10,-2.4919058895111423e-11,0.0,0.0,0.0,0.0,0.0,0.0,0.0,0.0,0.0
1796.593,3,1796,589000000,base_footprint,-7.267219165318348e-06,0.001589637741347319,0.0035291731578812866,0.9999925089398723,0.0,0.0,0.0,0.0,0.0,0.0,0.0,0.0,0.0,-4.5816164120833145e-05,-0.0002119060633296802,1.1819444363908622e-05,0.0,0.0,0.0,0.0,0.0,0.0,0.0,0.0,0.0,1.1952684582404137e-10,3.9239742841104755e-10,-2.1958541984820256e-11,0.0,0.0,0.0,0.0,0.0,0.0,0.0,0.0,0.0
1796.593,4,1796,590000000,base_footprint,-7.267222703341598e-06,0.0015896377413347348,0.0035291753867428897,0.9999925089320062,0.0,0.0,0.0,0.0,0.0,0.0,0.0,0.0,0.0,-4.581616240165596e-05,-0.00021190606383538065,1.1819446774621872e-05,0.0,0.0,0.0,0.0,0.0,0.0,0.0,0.0,0.0,1.19020052584077e-10,3.907388013315369e-10,-2.0295170433255576e-11,0.0,0.0,0.0,0.0,0.0,0.0,0.0,0.0,0.0
1796.593,5,1796,591000000,base_footprint,-7.267226241389955e-06,0.0015896377413221541,0.0035291776156046836,0.99999250892414,0.0,0.0,0.0,0.0,0.0,0.0,0.0,0.0,0.0,-4.581616076754385e-05,-0.0002119060643083419,1.1819449200572919e-05,0.0,0.0,0.0,0.0,0.0,0.0,0.0,0.0,0.0,1.1975098128802113e-10,3.930941620901439e-10,-2.2739292157935412e-11,0.0,0.0,0.0,0.0,0.0,0.0,0.0,0.0,0.0
1796.593,6,1796,592000000,base_footprint,-7.267229779428848e-06,0.0015896377413095837,0.0035291798444666623,0.9999925089162739,0.0,0.0,0.0,0.0,0.0,0.0,0.0,0.0,0.0,-4.5816159064083604e-05,-0.00021190606476665885,1.1819451614587808e-05,0.0,0.0,0.0,0.0,0.0,0.0,0.0,0.0,0.0,1.1912805206217704e-10,3.912530560818434e-10,-2.4106361079382682e-11,0.0,0.0,0.0,0.0,0.0,0.0,0.0,0.0,0.0
1796.593,7,1796,593000000,base_footprint,-7.267233317467221e-06,0.0015896377412970147,0.003529182073328838,0.999992508908408,0.0,0.0,0.0,0.0,0.0,0.0,0.0,0.0,0.0,-4.581615737827984e-05,-0.0002119060652442012,1.1819454050946206e-05,0.0,0.0,0.0,0.0,0.0,0.0,0.0,0.0,0.0,1.2029931024672537e-10,3.948693721613763e-10,-2.3274118285098067e-11,0.0,0.0,0.0,0.0,0.0,0.0,0.0,0.0,0.0
1796.594,8,1796,594000000,base_footprint,-7.267236855498934e-06,0.0015896377412844456,0.003529184302191198,0.9999925089005418,0.0,0.0,0.0,0.0,0.0,0.0,0.0,0.0,0.0,-4.581615568047881e-05,-0.00021190606572268127,1.181945646629864e-05,0.0,0.0,0.0,0.0,0.0,0.0,0.0,0.0,0.0,1.192236274251466e-10,3.914618329638418e-10,-2.192653202815631e-11,0.0,0.0,0.0,0.0,0.0,0.0,0.0,0.0,0.0
1796.595,9,1796,595000000,base_footprint,-7.267240393535733e-06,0.00158963774127188,0.003529186531053737,0.9999925088926757,0.0,0.0,0.0,0.0,0.0,0.0,0.0,0.0,0.0,-4.581615400648174e-05,-0.00021190606619553355,1.1819458867965443e-05,0.0,0.0,0.0,0.0,0.0,0.0,0.0,0.0,0.0,1.1850742204394778e-10,3.8919646574594375e-10,-2.1842318711153642e-11,0.0,0.0,0.0,0.0,0.0,0.0,0.0,0.0,0.0
1796.596,10,1796,596000000,base_footprint,-7.267243931572609e-06,0.001589637741259311,0.0035291887599164717,0.9999925088848095,0.0,0.0,0.0,0.0,0.0,0.0,0.0,0.0,0.0,-4.581615232172006e-05,-0.0002119060666810621,1.181946130265133e-05,0.0,0.0,0.0,0.0,0.0,0.0,0.0,0.0,0.0,1.2023121094731494e-10,3.9459565403403957e-10,-1.9950974479936447e-11,0.0,0.0,0.0,0.0,0.0,0.0,0.0,0.0,0.0
1796.597,11,1796,597000000,base_footprint,-7.267247469616355e-06,0.001589637741246734,0.0035291909887793884,0.9999925088769434,0.0,0.0,0.0,0.0,0.0,0.0,0.0,0.0,0.0,-4.581615065089541e-05,-0.00021190606717695124,1.1819463712004836e-05,0.0,0.0,0.0,0.0,0.0,0.0,0.0,0.0,0.0,1.1892922181206942e-10,3.904423933816233e-10,-2.1346982396593398e-11,0.0,0.0,0.0,0.0,0.0,0.0,0.0,0.0,0.0
1796.598,12,1796,598000000,base_footprint,-7.267251007654602e-06,0.0015896377412341544,0.003529193217642489,0.9999925088690772,0.0,0.0,0.0,0.0,0.0,0.0,0.0,0.0,0.0,-4.5816148955313785e-05,-0.0002119060676613311,1.1819466123339711e-05,0.0,0.0,0.0,0.0,0.0,0.0,0.0,0.0,0.0,1.1902459780788888e-10,3.90805454378993e-10,-2.0789321058050562e-11,0.0,0.0,0.0,0.0,0.0,0.0,0.0,0.0,0.0
1796.599,13,1796,599000000,base_footprint,-7.267254545692825e-06,0.001589637741221571,0.003529195446505788,0.999992508861211,0.0,0.0,0.0,0.0,0.0,0.0,0.0,0.0,0.0,-4.581614727031642e-05,-0.00021190606814815765,1.1819468563901885e-05,0.0,0.0,0.0,0.0,0.0,0.0,0.0,0.0,0.0,1.2052562757637977e-10,3.955533059306563e-10,-2.3193661844389352e-11,0.0,0.0,0.0,0.0,0.0,0.0,0.0,0.0,0.0
1796.6,14,1796,600000000,base_footprint,-7.267258083745559e-06,0.0015896377412089936,0.0035291976753692622,0.9999925088533449,0.0,0.0,0.0,0.0,0.0,0.0,0.0,0.0,0.0,-4.581614561533056e-05,-0.00021190606861578969,1.181947096013859e-05,0.0,0.0,0.0,0.0,0.0,0.0,0.0,0.0,0.0,1.182153672736483e-10,3.882798625816694e-10,-2.332292960665957e-11,0.0,0.0,0.0,0.0,0.0,0.0,0.0,0.0,0.0
1796.601,15,1796,601000000,base_footprint,-7.267261621788708e-06,0.0015896377411964231,0.003529199904232924,0.9999925088454786,0.0,0.0,0.0,0.0,0.0,0.0,0.0,0.0,0.0,-4.581614391164128e-05,-0.00021190606908070628,1.1819473378946207e-05,0.0,0.0,0.0,0.0,0.0,0.0,0.0,0.0,0.0,1.193826457332172e-10,3.9203692118986395e-10,-2.354152571238266e-11,0.0,0.0,0.0,0.0,0.0,0.0,0.0,0.0,0.0
1796.602,16,1796,602000000,base_footprint,-7.267265159825893e-06,0.001589637741183849,0.003529202133096777,0.9999925088376124,0.0,0.0,0.0,0.0,0.0,0.0,0.0,0.0,0.0,-4.581614221493088e-05,-0.0002119060695673129,1.1819475806088261e-05,0.0,0.0,0.0,0.0,0.0,0.0,0.0,0.0,0.0,1.1984048486702615e-10,3.9338307520239837e-10,-2.153261037139133e-11,0.0,0.0,0.0,0.0,0.0,0.0,0.0,0.0,0.0
1796.603,17,1796,603000000,base_footprint,-7.2672686978706585e-06,0.001589637741171277,0.0035292043619608183,0.9999925088297462,0.0,0.0,0.0,0.0,0.0,0.0,0.0,0.0,0.0,-4.581614054555427e-05,-0.00021190607004280935,1.1819478225642429e-05,0.0,0.0,0.0,0.0,0.0,0.0,0.0,0.0,0.0,1.1942311038837509e-10,3.921042941158504e-10,-2.479508824750096e-11,0.0,0.0,0.0,0.0,0.0,0.0,0.0,0.0,0.0
1796.604,18,1796,604000000,base_footprint,-7.267272235897412e-06,0.0015896377411587063,0.0035292065908250395,0.9999925088218801,0.0,0.0,0.0,0.0,0.0,0.0,0.0,0.0,0.0,-4.581613882509229e-05,-0.00021190607051908088,1.1819480629851614e-05,0.0,0.0,0.0,0.0,0.0,0.0,0.0,0.0,0.0,1.186493575900742e-10,3.8968091096585777e-10,-2.204208695294514e-11,0.0,0.0,0.0,0.0,0.0,0.0,0.0,0.0,0.0
1796.605,19,1796,605000000,base_footprint,-7.2672757739399575e-06,0.0015896377411461426,0.0035292088196894563,0.9999925088140139,0.0,0.0,0.0,0.0,0.0,0.0,0.0,0.0,0.0,-4.581613717221871e-05,-0.00021190607098486318,1.1819483065185048e-05,0.0,0.0,0.0,0.0,0.0,0.0,0.0,0.0,0.0,1.2023262070796574e-10,3.9465264881820664e-10,-2.2107015488013902e-11,0.0,0.0,0.0,0.0,0.0,0.0,0.0,0.0,0.0
1796.606,20,1796,606000000,base_footprint,-7.267279311990596e-06,0.001589637741133573,0.0035292110485540575,0.9999925088061478,0.0,0.0,0.0,0.0,0.0,0.0,0.0,0.0,0.0,-4.5816135503791296e-05,-0.00021190607147631845,1.1819485478586329e-05,0.0,0.0,0.0,0.0,0.0,0.0,0.0,0.0,0.0,1.1913976653393117e-10,3.910988745145801e-10,-1.922085988555128e-11,0.0,0.0,0.0,0.0,0.0,0.0,0.0,0.0,0.0
1796.607,21,1796,607000000,base_footprint,-7.267282850040282e-06,0.001589637741120991,0.0035292132774188433,0.9999925087982816,0.0,0.0,0.0,0.0,0.0,0.0,0.0,0.0,0.0,-4.581613381714364e-05,-0.00021190607198045178,1.1819487891941e-05,0.0,0.0,0.0,0.0,0.0,0.0,0.0,0.0,0.0,1.1915315078005196e-10,3.911199473209539e-10,-1.9071262000338042e-11,0.0,0.0,0.0,0.0,0.0,0.0,0.0,0.0,0.0
1796.608,22,1796,608000000,base_footprint,-7.267286388079308e-06,0.0015896377411084048,0.003529215506283818,0.9999925087904155,0.0,0.0,0.0,0.0,0.0,0.0,0.0,0.0,0.0,-4.581613211102412e-05,-0.00021190607246795992,1.1819490313401249e-05,0.0,0.0,0.0,0.0,0.0,0.0,0.0,0.0,0.0,1.1954112638899546e-10,3.92471667200391e-10,-2.418734086322136e-11,0.0,0.0,0.0,0.0,0.0,0.0,0.0,0.0,0.0
1796.609,23,1796,609000000,base_footprint,-7.2672899261306065e-06,0.0015896377410958295,0.003529217735148981,0.9999925087825492,0.0,0.0,0.0,0.0,0.0,0.0,0.0,0.0,0.0,-4.581613045131161e-05,-0.00021190607292574716,1.1819492735242664e-05,0.0,0.0,0.0,0.0,0.0,0.0,0.0,0.0,0.0,1.195240177496529e-10,3.92463227594064e-10,-2.3946090714532598e-11,0.0,0.0,0.0,0.0,0.0,0.0,0.0,0.0,0.0
1796.61,24,1796,610000000,base_footprint,-7.267293464169563e-06,0.0015896377410832552,0.0035292199640143355,0.9999925087746829,0.0,0.0,0.0,0.0,0.0,0.0,0.0,0.0,0.0,-4.58161287417867e-05,-0.0002119060734027738,1.181949516184317e-05,0.0,0.0,0.0,0.0,0.0,0.0,0.0,0.0,0.0,1.1980548324770834e-10,3.933141959385902e-10,-2.1403883231420114e-11,0.0,0.0,0.0,0.0,0.0,0.0,0.0,0.0,0.0
1796.611,25,1796,611000000,base_footprint,-7.267297002212455e-06,0.001589637741070687,0.003529222192879878,0.9999925087668167,0.0,0.0,0.0,0.0,0.0,0.0,0.0,0.0,0.0,-4.581612706527845e-05,-0.00021190607386990188,1.1819497582210359e-05,0.0,0.0,0.0,0.0,0.0,0.0,0.0,0.0,0.0,1.1945893497958183e-10,3.922475543749316e-10,-2.445546940236035e-11,0.0,0.0,0.0,0.0,0.0,0.0,0.0,0.0,0.0
1796.612,26,1796,612000000,base_footprint,-7.267300540256008e-06,0.0015896377410581166,0.0035292244217456003,0.9999925087589504,0.0,0.0,0.0,0.0,0.0,0.0,0.0,0.0,0.0,-4.581612538219916e-05,-0.00021190607435412172,1.1819499985816497e-05,0.0,0.0,0.0,0.0,0.0,0.0,0.0,0.0,0.0,1.1861970682764626e-10,3.8952568144781747e-10,-2.2139479329682394e-11,0.0,0.0,0.0,0.0,0.0,0.0,0.0,0.0,0.0
1796.613,27,1796,613000000,base_footprint,-7.267304078292973e-06,0.001589637741045541,0.003529226650611517,0.9999925087510841,0.0,0.0,0.0,0.0,0.0,0.0,0.0,0.0,0.0,-4.5816123684096544e-05,-0.00021190607484340872,1.1819502418503427e-05,0.0,0.0,0.0,0.0,0.0,0.0,0.0,0.0,0.0,1.201279408047138e-10,3.9429044478751804e-10,-2.1790294834804424e-11,0.0,0.0,0.0,0.0,0.0,0.0,0.0,0.0,0.0
1796.614,28,1796,614000000,base_footprint,-7.267307616340816e-06,0.001589637741032959,0.0035292288794776206,0.9999925087432181,0.0,0.0,0.0,0.0,0.0,0.0,0.0,0.0,0.0,-4.58161220212767e-05,-0.0002119060753366072,1.181950483520731e-05,0.0,0.0,0.0,0.0,0.0,0.0,0.0,0.0,0.0,1.1930616513962874e-10,3.916289196477518e-10,-2.0689839889675067e-11,0.0,0.0,0.0,0.0,0.0,0.0,0.0,0.0,0.0
1796.615,29,1796,615000000,base_footprint,-7.267311154393119e-06,0.001589637741020382,0.003529231108343906,0.9999925087353517,0.0,0.0,0.0,0.0,0.0,0.0,0.0,0.0,0.0,-4.581612034575552e-05,-0.00021190607580460577,1.181950724598087e-05,0.0,0.0,0.0,0.0,0.0,0.0,0.0,0.0,0.0,1.1896317672612287e-10,3.90682535876342e-10,-2.4879933054775576e-11,0.0,0.0,0.0,0.0,0.0,0.0,0.0,0.0,0.0
1796.616,30,1796,616000000,base_footprint,-7.267314692447085e-06,0.001589637741007811,0.0035292333372103904,0.9999925087274856,0.0,0.0,0.0,0.0,0.0,0.0,0.0,0.0,0.0,-4.58161186643879e-05,-0.00021190607627306508,1.1819509685208487e-05,0.0,0.0,0.0,0.0,0.0,0.0,0.0,0.0,0.0,1.204472300198045e-10,3.953304960944326e-10,-2.01543593566921e-11,0.0,0.0,0.0,0.0,0.0,0.0,0.0,0.0,0.0
1796.617,31,1796,617000000,base_footprint,-7.267318230491604e-06,0.001589637740995239,0.0035292355660770506,0.9999925087196193,0.0,0.0,0.0,0.0,0.0,0.0,0.0,0.0,0.0,-4.581611696120526e-05,-0.00021190607675374546,1.1819512082954851e-05,0.0,0.0,0.0,0.0,0.0,0.0,0.0,0.0,0.0,1.1831684854911217e-10,3.885998213566485e-10,-2.2425821239994472e-11,0.0,0.0,0.0,0.0,0.0,0.0,0.0,0.0,0.0
1796.618,32,1796,618000000,base_footprint,-7.267321768535849e-06,0.0015896377409826616,0.0035292377949438917,0.999992508711753,0.0,0.0,0.0,0.0,0.0,0.0,0.0,0.0,0.0,-4.581611527622536e-05,-0.00021190607724417654,1.1819514488330387e-05,0.0,0.0,0.0,0.0,0.0,0.0,0.0,0.0,0.0,1.1871644159822753e-10,3.8981834003457775e-10,-2.2272060998182185e-11,0.0,0.0,0.0,0.0,0.0,0.0,0.0,0.0,0.0
1796.619,33,1796,619000000,base_footprint,-7.267325306580547e-06,0.0015896377409700822,0.003529240023810929,0.9999925087038868,0.0,0.0,0.0,0.0,0.0,0.0,0.0,0.0,0.0,-4.5816113592135545e-05,-0.000211906077727353,1.1819516925115214e-05,0.0,0.0,0.0,0.0,0.0,0.0,0.0,0.0,0.0,1.2033545440140797e-10,3.9493701508076604e-10,-2.0363523785489914e-11,0.0,0.0,0.0,0.0,0.0,0.0,0.0,0.0,0.0
1796.62,34,1796,620000000,base_footprint,-7.26732884462785e-06,0.0015896377409575022,0.0035292422526781533,0.9999925086960203,0.0,0.0,0.0,0.0,0.0,0.0,0.0,0.0,0.0,-4.5816111912822105e-05,-0.00021190607820721372,1.181951934565004e-05,0.0,0.0,0.0,0.0,0.0,0.0,0.0,0.0,0.0,1.194889179479969e-10,3.922781134358641e-10,-2.205921593295239e-11,0.0,0.0,0.0,0.0,0.0,0.0,0.0,0.0,0.0
1796.621,35,1796,621000000,base_footprint,-7.267332382682252e-06,0.0015896377409449342,0.0035292444815455664,0.9999925086881543,0.0,0.0,0.0,0.0,0.0,0.0,0.0,0.0,0.0,-4.581611024269179e-05,-0.0002119060786642564,1.1819521763265128e-05,0.0,0.0,0.0,0.0,0.0,0.0,0.0,0.0,0.0,1.1930582789025236e-10,3.91789780560735e-10,-2.433614174854195e-11,0.0,0.0,0.0,0.0,0.0,0.0,0.0,0.0,0.0
1796.622,36,1796,622000000,base_footprint,-7.267335920720696e-06,0.001589637740932354,0.003529246710413169,0.9999925086802878,0.0,0.0,0.0,0.0,0.0,0.0,0.0,0.0,0.0,-4.5816108525760295e-05,-0.00021190607916588927,1.181952419037649e-05,0.0,0.0,0.0,0.0,0.0,0.0,0.0,0.0,0.0,1.19856216593711e-10,3.934089234978208e-10,-2.184701361897699e-11,0.0,0.0,0.0,0.0,0.0,0.0,0.0,0.0,0.0
1796.623,37,1796,623000000,base_footprint,-7.267339458767939e-06,0.0015896377409197818,0.0035292489392809543,0.9999925086724215,0.0,0.0,0.0,0.0,0.0,0.0,0.0,0.0,0.0,-4.581610685919435e-05,-0.000211906079630097,1.1819526597673688e-05,0.0,0.0,0.0,0.0,0.0,0.0,0.0,0.0,0.0,1.1877978745747261e-10,3.901018371307448e-10,-2.4536373123222986e-11,0.0,0.0,0.0,0.0,0.0,0.0,0.0,0.0,0.0
1796.624,38,1796,624000000,base_footprint,-7.2673429968212785e-06,0.0015896377409072165,0.0035292511681489164,0.9999925086645552,0.0,0.0,0.0,0.0,0.0,0.0,0.0,0.0,0.0,-4.581610518725692e-05,-0.00021190608009594386,1.1819528996295024e-05,0.0,0.0,0.0,0.0,0.0,0.0,0.0,0.0,0.0,1.1834976116503948e-10,3.8869677578146836e-10,-1.9677312935213864e-11,0.0,0.0,0.0,0.0,0.0,0.0,0.0,0.0,0.0
1796.625,39,1796,625000000,base_footprint,-7.267346534860952e-06,0.0015896377408946428,0.00352925339701707,0.999992508656689,0.0,0.0,0.0,0.0,0.0,0.0,0.0,0.0,0.0,-4.581610347498762e-05,-0.00021190608059193012,1.1819531422445223e-05,0.0,0.0,0.0,0.0,0.0,0.0,0.0,0.0,0.0,1.19797492818038e-10,3.932460043406297e-10,-2.255773092523058e-11,0.0,0.0,0.0,0.0,0.0,0.0,0.0,0.0,0.0
1796.626,40,1796,626000000,base_footprint,-7.2673500729072886e-06,0.0015896377408820652,0.0035292556258854153,0.9999925086488227,0.0,0.0,0.0,0.0,0.0,0.0,0.0,0.0,0.0,-4.5816101803633553e-05,-0.00021190608107909265,1.1819533850814537e-05,0.0,0.0,0.0,0.0,0.0,0.0,0.0,0.0,0.0,1.198979570111782e-10,3.9354472485430395e-10,-2.2156907966827996e-11,0.0,0.0,0.0,0.0,0.0,0.0,0.0,0.0,0.0
1796.627,41,1796,627000000,base_footprint,-7.26735361096185e-06,0.0015896377408694945,0.00352925785475394,0.9999925086409565,0.0,0.0,0.0,0.0,0.0,0.0,0.0,0.0,0.0,-4.581610013589834e-05,-0.00021190608154479263,1.1819536253601716e-05,0.0,0.0,0.0,0.0,0.0,0.0,0.0,0.0,0.0,1.185495409732079e-10,3.8936797281493654e-10,-2.4370158600726956e-11,0.0,0.0,0.0,0.0,0.0,0.0,0.0,0.0,0.0
1796.628,42,1796,628000000,base_footprint,-7.2673571490158196e-06,0.0015896377408569278,0.0035292600836226585,0.99999250863309,0.0,0.0,0.0,0.0,0.0,0.0,0.0,0.0,0.0,-4.581609844994196e-05,-0.0002119060820155511,1.181953868737015e-05,0.0,0.0,0.0,0.0,0.0,0.0,0.0,0.0,0.0,1.2016546627110471e-10,3.94447962688602e-10,-2.1081854694723316e-11,0.0,0.0,0.0,0.0,0.0,0.0,0.0,0.0,0.0
1796.629,43,1796,629000000,base_footprint,-7.2673606870477255e-06,0.0015896377408443488,0.0035292623124915717,0.9999925086252238,0.0,0.0,0.0,0.0,0.0,0.0,0.0,0.0,0.0,-4.581609672072879e-05,-0.00021190608252026795,1.1819541116485724e-05,0.0,0.0,0.0,0.0,0.0,0.0,0.0,0.0,0.0,1.1996638922873297e-10,3.9375313175116674e-10,-2.148966557608669e-11,0.0,0.0,0.0,0.0,0.0,0.0,0.0,0.0,0.0
1796.63,44,1796,630000000,base_footprint,-7.267364225103505e-06,0.0015896377408317652,0.003529264541360667,0.9999925086173574,0.0,0.0,0.0,0.0,0.0,0.0,0.0,0.0,0.0,-4.5816095084107203e-05,-0.00021190608300897558,1.181954352734687e-05,0.0,0.0,0.0,0.0,0.0,0.0,0.0,0.0,0.0,1.1899468124834345e-10,3.906370393597584e-10,-2.0983782844445753e-11,0.0,0.0,0.0,0.0,0.0,0.0,0.0,0.0,0.0
1796.631,45,1796,631000000,base_footprint,-7.2673677631521925e-06,0.0015896377408191858,0.0035292667702299485,0.9999925086094911,0.0,0.0,0.0,0.0,0.0,0.0,0.0,0.0,0.0,-4.581609338531538e-05,-0.00021190608347959898,1.1819545943929221e-05,0.0,0.0,0.0,0.0,0.0,0.0,0.0,0.0,0.0,1.1927924932336173e-10,3.916656305124246e-10,-2.1626910571021554e-11,0.0,0.0,0.0,0.0,0.0,0.0,0.0,0.0,0.0
1796.632,46,1796,632000000,base_footprint,-7.2673713012100464e-06,0.0015896377408066028,0.003529268999099427,0.9999925086016247,0.0,0.0,0.0,0.0,0.0,0.0,0.0,0.0,0.0,-4.581609171883064e-05,-0.0002119060839662879,1.1819548382246573e-05,0.0,0.0,0.0,0.0,0.0,0.0,0.0,0.0,0.0,1.2041480637595302e-10,3.9515902880875433e-10,-2.0596906827255052e-11,0.0,0.0,0.0,0.0,0.0,0.0,0.0,0.0,0.0
1796.633,47,1796,633000000,base_footprint,-7.267374839268457e-06,0.0015896377407940293,0.00352927122796908,0.9999925085937583,0.0,0.0,0.0,0.0,0.0,0.0,0.0,0.0,0.0,-4.5816090035886234e-05,-0.00021190608442654414,1.1819550775616085e-05,0.0,0.0,0.0,0.0,0.0,0.0,0.0,0.0,0.0,1.1805368638962592e-10,3.8785550370009376e-10,-2.664369202185286e-11,0.0,0.0,0.0,0.0,0.0,0.0,0.0,0.0,0.0
1796.634,48,1796,634000000,base_footprint,-7.267378377314129e-06,0.0015896377407814532,0.003529273456838931,0.999992508585892,0.0,0.0,0.0,0.0,0.0,0.0,0.0,0.0,0.0,-4.581608832537579e-05,-0.0002119060849110273,1.1819553216125882e-05,0.0,0.0,0.0,0.0,0.0,0.0,0.0,0.0,0.0,1.205305234896652e-10,3.9558543710223895e-10,-2.106366440829757e-11,0.0,0.0,0.0,0.0,0.0,0.0,0.0,0.0,0.0
1796.635,49,1796,635000000,base_footprint,-7.267381915360741e-06,0.001589637740768885,0.0035292756857089568,0.9999925085780256,0.0,0.0,0.0,0.0,0.0,0.0,0.0,0.0,0.0,-4.581608664324871e-05,-0.00021190608537437994,1.1819555608768484e-05,0.0,0.0,0.0,0.0,0.0,0.0,0.0,0.0,0.0,1.180211262583729e-10,3.877360032345139e-10,-2.598531553966157e-11,0.0,0.0,0.0,0.0,0.0,0.0,0.0,0.0,0.0
1796.636,50,1796,636000000,base_footprint,-7.267385453411728e-06,0.0015896377407563142,0.0035292779145791662,0.9999925085701592,0.0,0.0,0.0,0.0,0.0,0.0,0.0,0.0,0.0,-4.581608496753186e-05,-0.0002119060858588236,1.1819558020998304e-05,0.0,0.0,0.0,0.0,0.0,0.0,0.0,0.0,0.0,1.1906485406212155e-10,3.9092172048021106e-10,-2.148038390089114e-11,0.0,0.0,0.0,0.0,0.0,0.0,0.0,0.0,0.0
1796.637,51,1796,637000000,base_footprint,-7.2673889914567e-06,0.0015896377407437468,0.00352928014344958,0.9999925085622928,0.0,0.0,0.0,0.0,0.0,0.0,0.0,0.0,0.0,-4.581608327033775e-05,-0.00021190608633144935,1.181956047368398e-05,0.0,0.0,0.0,0.0,0.0,0.0,0.0,0.0,0.0,1.211468039548288e-10,3.9754880518574763e-10,-2.0526267421772314e-11,0.0,0.0,0.0,0.0,0.0,0.0,0.0,0.0,0.0
1796.638,52,1796,638000000,base_footprint,-7.267392529511319e-06,0.0015896377407311822,0.003529282372320176,0.9999925085544265,0.0,0.0,0.0,0.0,0.0,0.0,0.0,0.0,0.0,-4.581608160542417e-05,-0.0002119060868056529,1.1819562881830579e-05,0.0,0.0,0.0,0.0,0.0,0.0,0.0,0.0,0.0,1.188346974278637e-10,3.9023601906278714e-10,-2.4358483678225024e-11,0.0,0.0,0.0,0.0,0.0,0.0,0.0,0.0,0.0
1796.639,53,1796,639000000,base_footprint,-7.267396067566159e-06,0.0015896377407186141,0.003529284601190951,0.9999925085465601,0.0,0.0,0.0,0.0,0.0,0.0,0.0,0.0,0.0,-4.581607992144439e-05,-0.00021190608729175747,1.1819565284743695e-05,0.0,0.0,0.0,0.0,0.0,0.0,0.0,0.0,0.0,1.1858818019360367e-10,3.894147648221622e-10,-2.130958484135458e-11,0.0,0.0,0.0,0.0,0.0,0.0,0.0,0.0,0.0
1796.64,54,1796,640000000,base_footprint,-7.267399605613295e-06,0.0015896377407060391,0.0035292868300619198,0.9999925085386937,0.0,0.0,0.0,0.0,0.0,0.0,0.0,0.0,0.0,-4.5816078221075514e-05,-0.0002119060877850178,1.1819567716582015e-05,0.0,0.0,0.0,0.0,0.0,0.0,0.0,0.0,0.0,1.200908055951119e-10,3.9415554707751955e-10,-2.1033897950191386e-11,0.0,0.0,0.0,0.0,0.0,0.0,0.0,0.0,0.0
1796.641,55,1796,641000000,base_footprint,-7.267403143656261e-06,0.0015896377406934528,0.0035292890589330756,0.9999925085308273,0.0,0.0,0.0,0.0,0.0,0.0,0.0,0.0,0.0,-4.5816076527946926e-05,-0.00021190608828674024,1.1819570134430928e-05,0.0,0.0,0.0,0.0,0.0,0.0,0.0,0.0,0.0,1.1938958176419468e-10,3.918618315336754e-10,-1.724130090637988e-11,0.0,0.0,0.0,0.0,0.0,0.0,0.0,0.0,0.0
1796.642,56,1796,642000000,base_footprint,-7.2674066817159504e-06,0.0015896377406808624,0.003529291287804414,0.999992508522961,0.0,0.0,0.0,0.0,0.0,0.0,0.0,0.0,0.0,-4.581607487695921e-05,-0.0002119060887745554,1.1819572543722768e-05,0.0,0.0,0.0,0.0,0.0,0.0,0.0,0.0,0.0,1.1891314071345838e-10,3.9040355897159163e-10,-2.153773751352864e-11,0.0,0.0,0.0,0.0,0.0,0.0,0.0,0.0,0.0
1796.643,57,1796,643000000,base_footprint,-7.2674102197686815e-06,0.0015896377406682764,0.003529293516675929,0.9999925085150946,0.0,0.0,0.0,0.0,0.0,0.0,0.0,0.0,0.0,-4.581607317865297e-05,-0.00021190608924500626,1.1819574941015163e-05,0.0,0.0,0.0,0.0,0.0,0.0,0.0,0.0,0.0,1.182745493429701e-10,3.8851964634775343e-10,-2.4639020221961495e-11,0.0,0.0,0.0,0.0,0.0,0.0,0.0,0.0,0.0
1796.644,58,1796,644000000,base_footprint,-7.267413757824212e-06,0.001589637740655702,0.0035292957455476466,0.9999925085072282,0.0,0.0,0.0,0.0,0.0,0.0,0.0,0.0,0.0,-4.581607149950743e-05,-0.00021190608970094433,1.1819577390924941e-05,0.0,0.0,0.0,0.0,0.0,0.0,0.0,0.0,0.0,1.2097578871600498e-10,3.9707001805719763e-10,-2.2874857378759763e-11,0.0,0.0,0.0,0.0,0.0,0.0,0.0,0.0,0.0
1796.645,59,1796,645000000,base_footprint,-7.267417295880347e-06,0.0015896377406431333,0.003529297974419552,0.9999925084993618,0.0,0.0,0.0,0.0,0.0,0.0,0.0,0.0,0.0,-4.581606981633166e-05,-0.00021190609016890475,1.1819579810443745e-05,0.0,0.0,0.0,0.0,0.0,0.0,0.0,0.0,0.0,1.1941914260369373e-10,3.921174731053742e-10,-2.4047880949133732e-11,0.0,0.0,0.0,0.0,0.0,0.0,0.0,0.0,0.0
1796.646,60,1796,646000000,base_footprint,-7.2674208339389925e-06,0.0015896377406305559,0.0035293002032916365,0.9999925084914953,0.0,0.0,0.0,0.0,0.0,0.0,0.0,0.0,0.0,-4.581606813687155e-05,-0.00021190609066573313,1.1819582214575494e-05,0.0,0.0,0.0,0.0,0.0,0.0,0.0,0.0,0.0,1.1866384976502657e-10,3.896059637216102e-10,-2.0504779087359824e-11,0.0,0.0,0.0,0.0,0.0,0.0,0.0,0.0,0.0
1796.647,61,1796,647000000,base_footprint,-7.267424371994167e-06,0.0015896377406179776,0.0035293024321639164,0.9999925084836289,0.0,0.0,0.0,0.0,0.0,0.0,0.0,0.0,0.0,-4.581606644495544e-05,-0.00021190609114643305,1.1819584649001398e-05,0.0,0.0,0.0,0.0,0.0,0.0,0.0,0.0,0.0,1.2020081687166612e-10,3.945642726239864e-10,-2.4025282249194086e-11,0.0,0.0,0.0,0.0,0.0,0.0,0.0,0.0,0.0
1796.648,62,1796,648000000,base_footprint,-7.267427910047612e-06,0.0015896377406053987,0.0035293046610363767,0.9999925084757625,0.0,0.0,0.0,0.0,0.0,0.0,0.0,0.0,0.0,-4.581606475719323e-05,-0.00021190609162772728,1.1819587053368443e-05,0.0,0.0,0.0,0.0,0.0,0.0,0.0,0.0,0.0,1.18661377063693e-10,3.896556033291731e-10,-2.0831254544848448e-11,0.0,0.0,0.0,0.0,0.0,0.0,0.0,0.0,0.0
1796.649,63,1796,649000000,base_footprint,-7.267431448096269e-06,0.001589637740592828,0.0035293068899090196,0.999992508467896,0.0,0.0,0.0,0.0,0.0,0.0,0.0,0.0,0.0,-4.581606306323687e-05,-0.00021190609209030138,1.1819589462460166e-05,0.0,0.0,0.0,0.0,0.0,0.0,0.0,0.0,0.0,1.1887679681194435e-10,3.904376591433802e-10,-2.377234426370162e-11,0.0,0.0,0.0,0.0,0.0,0.0,0.0,0.0,0.0
1796.65,64,1796,650000000,base_footprint,-7.2674349861514975e-06,0.001589637740580259,0.0035293091187818594,0.9999925084600295,0.0,0.0,0.0,0.0,0.0,0.0,0.0,0.0,0.0,-4.58160613916697e-05,-0.0002119060925663364,1.1819591900062178e-05,0.0,0.0,0.0,0.0,0.0,0.0,0.0,0.0,0.0,1.2034963794263987e-10,3.9505082392849624e-10,-2.6242450799435327e-11,0.0,0.0,0.0,0.0,0.0,0.0,0.0,0.0,0.0
1796.651,65,1796,651000000,base_footprint,-7.267438524204e-06,0.0015896377405676925,0.003529311347654877,0.999992508452163,0.0,0.0,0.0,0.0,0.0,0.0,0.0,0.0,0.0,-4.5816059702002066e-05,-0.0002119060930411736,1.1819594299762209e-05,0.0,0.0,0.0,0.0,0.0,0.0,0.0,0.0,0.0,1.1841857501092527e-10,3.8889725692993246e-10,-1.959714980000587e-11,0.0,0.0,0.0,0.0,0.0,0.0,0.0,0.0,0.0
1796.652,66,1796,652000000,base_footprint,-7.2674420622631574e-06,0.0015896377405551247,0.0035293135765280823,0.9999925084442965,0.0,0.0,0.0,0.0,0.0,0.0,0.0,0.0,0.0,-4.581605803069936e-05,-0.00021190609352283226,1.181959671957724e-05,0.0,0.0,0.0,0.0,0.0,0.0,0.0,0.0,0.0,1.1945690092748853e-10,3.9215167197869236e-10,-2.0087872474640237e-11,0.0,0.0,0.0,0.0,0.0,0.0,0.0,0.0,0.0
1796.653,67,1796,653000000,base_footprint,-7.267445600316676e-06,0.0015896377405425466,0.0035293158054014724,0.9999925084364303,0.0,0.0,0.0,0.0,0.0,0.0,0.0,0.0,0.0,-4.5816056334659346e-05,-0.0002119060940235388,1.1819599131598e-05,0.0,0.0,0.0,0.0,0.0,0.0,0.0,0.0,0.0,1.190768616642945e-10,3.9091667945579537e-10,-2.0766098604434502e-11,0.0,0.0,0.0,0.0,0.0,0.0,0.0,0.0,0.0
1796.654,68,1796,654000000,base_footprint,-7.267449138382066e-06,0.0015896377405299638,0.003529318034275059,0.9999925084285638,0.0,0.0,0.0,0.0,0.0,0.0,0.0,0.0,0.0,-4.5816054673536094e-05,-0.00021190609451187105,1.1819601570787138e-05,0.0,0.0,0.0,0.0,0.0,0.0,0.0,0.0,0.0,1.204524187908513e-10,3.9529322146628787e-10,-2.3068630405818823e-11,0.0,0.0,0.0,0.0,0.0,0.0,0.0,0.0,0.0
1796.655,69,1796,655000000,base_footprint,-7.267452676442777e-06,0.0015896377405173834,0.003529320263148828,0.9999925084206973,0.0,0.0,0.0,0.0,0.0,0.0,0.0,0.0,0.0,-4.58160529796782e-05,-0.00021190609498633877,1.1819603979971903e-05,0.0,0.0,0.0,0.0,0.0,0.0,0.0,0.0,0.0,1.1890166663211017e-10,3.90450094636362e-10,-2.1591248610623093e-11,0.0,0.0,0.0,0.0,0.0,0.0,0.0,0.0,0.0
1796.656,70,1796,656000000,base_footprint,-7.267456214503198e-06,0.0015896377405048103,0.003529322492022793,0.9999925084128308,0.0,0.0,0.0,0.0,0.0,0.0,0.0,0.0,0.0,-4.581605129443193e-05,-0.00021190609545068779,1.1819606415292825e-05,0.0,0.0,0.0,0.0,0.0,0.0,0.0,0.0,0.0,1.2023149071456662e-10,3.946999405273029e-10,-2.339682070235886e-11,0.0,0.0,0.0,0.0,0.0,0.0,0.0,0.0,0.0
1796.657,71,1796,657000000,base_footprint,-7.267459752557731e-06,0.001589637740492225,0.0035293247208969445,0.9999925084049643,0.0,0.0,0.0,0.0,0.0,0.0,0.0,0.0,0.0,-4.581604959785655e-05,-0.0002119060959548683,1.1819608833785531e-05,0.0,0.0,0.0,0.0,0.0,0.0,0.0,0.0,0.0,1.1942139089956478e-10,3.9197154683749575e-10,-1.8677925877529537e-11,0.0,0.0,0.0,0.0,0.0,0.0,0.0,0.0,0.0
1796.658,72,1796,658000000,base_footprint,-7.267463290605695e-06,0.0015896377404796397,0.0035293269497712787,0.9999925083970979,0.0,0.0,0.0,0.0,0.0,0.0,0.0,0.0,0.0,-4.5816047900198175e-05,-0.00021190609643348832,1.181961124250635e-05,0.0,0.0,0.0,0.0,0.0,0.0,0.0,0.0,0.0,1.1887497405710818e-10,3.9038222793475786e-10,-2.3660270677312423e-11,0.0,0.0,0.0,0.0,0.0,0.0,0.0,0.0,0.0
1796.659,73,1796,659000000,base_footprint,-7.267466828665484e-06,0.0015896377404670686,0.0035293291786458033,0.9999925083892314,0.0,0.0,0.0,0.0,0.0,0.0,0.0,0.0,0.0,-4.581604623958788e-05,-0.00021190609688490018,1.1819613667581967e-05,0.0,0.0,0.0,0.0,0.0,0.0,0.0,0.0,0.0,1.1968351623577823e-10,3.9299238779272846e-10,-2.4124814775697524e-11,0.0,0.0,0.0,0.0,0.0,0.0,0.0,0.0,0.0
1796.66,74,1796,660000000,base_footprint,-7.267470366722498e-06,0.0015896377404545049,0.0035293314075205144,0.9999925083813649,0.0,0.0,0.0,0.0,0.0,0.0,0.0,0.0,0.0,-4.58160445495317e-05,-0.00021190609734937331,1.1819616084820893e-05,0.0,0.0,0.0,0.0,0.0,0.0,0.0,0.0,0.0,1.1929138942948637e-10,3.917585020879108e-10,-2.613071642483152e-11,0.0,0.0,0.0,0.0,0.0,0.0,0.0,0.0,0.0
1796.661,75,1796,661000000,base_footprint,-7.267473904783051e-06,0.0015896377404419394,0.003529333636395407,0.9999925083734984,0.0,0.0,0.0,0.0,0.0,0.0,0.0,0.0,0.0,-4.5816042872262154e-05,-0.00021190609783228095,1.181961849207587e-05,0.0,0.0,0.0,0.0,0.0,0.0,0.0,0.0,0.0,1.188093284165125e-10,3.901116198803592e-10,-2.0916210059509648e-11,0.0,0.0,0.0,0.0,0.0,0.0,0.0,0.0,0.0
1796.662,76,1796,662000000,base_footprint,-7.267477442842981e-06,0.0015896377404293754,0.003529335865270485,0.9999925083656319,0.0,0.0,0.0,0.0,0.0,0.0,0.0,0.0,0.0,-4.5816041186438764e-05,-0.00021190609830868166,1.1819620907272981e-05,0.0,0.0,0.0,0.0,0.0,0.0,0.0,0.0,0.0,1.1920752201884085e-10,3.9142037214057636e-10,-2.2763108968588077e-11,0.0,0.0,0.0,0.0,0.0,0.0,0.0,0.0,0.0
1796.663,77,1796,663000000,base_footprint,-7.26748098088892e-06,0.0015896377404168052,0.00352933809414575,0.9999925083577653,0.0,0.0,0.0,0.0,0.0,0.0,0.0,0.0,0.0,-4.581603947368182e-05,-0.00021190609880011272,1.1819623326525515e-05,0.0,0.0,0.0,0.0,0.0,0.0,0.0,0.0,0.0,1.1944523072894421e-10,3.921220777334573e-10,-2.0003761144159165e-11,0.0,0.0,0.0,0.0,0.0,0.0,0.0,0.0,0.0
1796.664,78,1796,664000000,base_footprint,-7.2674845189494725e-06,0.0015896377404042207,0.003529340323021202,0.9999925083498987,0.0,0.0,0.0,0.0,0.0,0.0,0.0,0.0,0.0,-4.581603781820437e-05,-0.00021190609930803794,1.181962574416294e-05,0.0,0.0,0.0,0.0,0.0,0.0,0.0,0.0,0.0,1.1937370580473572e-10,3.9177003398640124e-10,-1.8762195019558374e-11,0.0,0.0,0.0,0.0,0.0,0.0,0.0,0.0,0.0
1796.665,79,1796,665000000,base_footprint,-7.267488057017396e-06,0.0015896377403916383,0.003529342551896846,0.9999925083420322,0.0,0.0,0.0,0.0,0.0,0.0,0.0,0.0,0.0,-4.581603614823864e-05,-0.00021190609978379883,1.1819628171760397e-05,0.0,0.0,0.0,0.0,0.0,0.0,0.0,0.0,0.0,1.1984038097065745e-10,3.9341665584049725e-10,-2.402595681737996e-11,0.0,0.0,0.0,0.0,0.0,0.0,0.0,0.0,0.0
1796.666,80,1796,666000000,base_footprint,-7.267491595082768e-06,0.0015896377403790578,0.0035293447807726794,0.9999925083341658,0.0,0.0,0.0,0.0,0.0,0.0,0.0,0.0,0.0,-4.581603445844296e-05,-0.00021190610025887888,1.1819630594831176e-05,0.0,0.0,0.0,0.0,0.0,0.0,0.0,0.0,0.0,1.1961874712110966e-10,3.92708535673777e-10,-2.1173964350404054e-11,0.0,0.0,0.0,0.0,0.0,0.0,0.0,0.0,0.0
1796.667,81,1796,667000000,base_footprint,-7.267495133147772e-06,0.0015896377403664817,0.003529347009648689,0.999992508326299,0.0,0.0,0.0,0.0,0.0,0.0,0.0,0.0,0.0,-4.581603277361161e-05,-0.0002119061007289957,1.181963299344404e-05,0.0,0.0,0.0,0.0,0.0,0.0,0.0,0.0,0.0,1.183459607741039e-10,3.887141431464278e-10,-2.2802584303973615e-11,0.0,0.0,0.0,0.0,0.0,0.0,0.0,0.0,0.0
1796.667,82,1796,668000000,base_footprint,-7.267498671209699e-06,0.0015896377403539117,0.0035293492385248875,0.9999925083184327,0.0,0.0,0.0,0.0,0.0,0.0,0.0,0.0,0.0,-4.581603108289737e-05,-0.0002119061011976034,1.181963541183313e-05,0.0,0.0,0.0,0.0,0.0,0.0,0.0,0.0,0.0,1.1935663450020904e-10,3.9194849106081723e-10,-2.5376964013064167e-11,0.0,0.0,0.0,0.0,0.0,0.0,0.0,0.0,0.0
1796.668,83,1796,669000000,base_footprint,-7.267502209264244e-06,0.0015896377403413376,0.003529351467401287,0.9999925083105661,0.0,0.0,0.0,0.0,0.0,0.0,0.0,0.0,0.0,-4.581602938299662e-05,-0.00021190610168413506,1.1819637859432331e-05,0.0,0.0,0.0,0.0,0.0,0.0,0.0,0.0,0.0,1.2090464677104325e-10,3.967233102342806e-10,-1.8715798368659214e-11,0.0,0.0,0.0,0.0,0.0,0.0,0.0,0.0,0.0
1796.67,84,1796,670000000,base_footprint,-7.267505747315188e-06,0.0015896377403287624,0.0035293536962778672,0.9999925083026995,0.0,0.0,0.0,0.0,0.0,0.0,0.0,0.0,0.0,-4.5816027691381e-05,-0.0002119061021657329,1.1819640265547925e-05,0.0,0.0,0.0,0.0,0.0,0.0,0.0,0.0,0.0,1.1874785774742998e-10,3.899460703744786e-10,-2.231871084289402e-11,0.0,0.0,0.0,0.0,0.0,0.0,0.0,0.0,0.0
1796.671,85,1796,671000000,base_footprint,-7.267509285376133e-06,0.0015896377403161945,0.0035293559251546353,0.9999925082948331,0.0,0.0,0.0,0.0,0.0,0.0,0.0,0.0,0.0,-4.581602602704138e-05,-0.00021190610263134853,1.1819642683332605e-05,0.0,0.0,0.0,0.0,0.0,0.0,0.0,0.0,0.0,1.1931880542759115e-10,3.9180970590962394e-10,-2.5169214422964622e-11,0.0,0.0,0.0,0.0,0.0,0.0,0.0,0.0,0.0
1796.675,86,1796,672000000,base_footprint,-7.267512823440734e-06,0.0015896377403036158,0.0035293581540315868,0.9999925082869664,0.0,0.0,0.0,0.0,0.0,0.0,0.0,0.0,0.0,-4.581602434968009e-05,-0.00021190610313108295,1.1819645096897014e-05,0.0,0.0,0.0,0.0,0.0,0.0,0.0,0.0,0.0,1.191500123538134e-10,3.911399940487806e-10,-2.1471322719793995e-11,0.0,0.0,0.0,0.0,0.0,0.0,0.0,0.0,0.0
1796.676,87,1796,673000000,base_footprint,-7.26751636150599e-06,0.0015896377402910336,0.003529360382908727,0.9999925082790999,0.0,0.0,0.0,0.0,0.0,0.0,0.0,0.0,0.0,-4.58160226662503e-05,-0.00021190610361825608,1.1819647517153597e-05,0.0,0.0,0.0,0.0,0.0,0.0,0.0,0.0,0.0,1.1948863899203274e-10,3.922407954793662e-10,-1.980879231821189e-11,0.0,0.0,0.0,0.0,0.0,0.0,0.0,0.0,0.0
1796.676,90,1796,676000000,base_footprint,-7.2675269756955585e-06,0.0015896377402532965,0.003529367069541259,0.9999925082555001,0.0,0.0,0.0,0.0,0.0,0.0,0.0,0.0,0.0,-4.581601758536282e-05,-0.00021190610505644506,1.1819654757353968e-05,0.0,0.0,0.0,0.0,0.0,0.0,0.0,0.0,0.0,1.1885293799897193e-10,3.902851935209341e-10,-1.9902544563049273e-11,0.0,0.0,0.0,0.0,0.0,0.0,0.0,0.0,0.0
1796.677,91,1796,677000000,base_footprint,-7.267530513768896e-06,0.001589637740240711,0.003529369298419136,0.9999925082476335,0.0,0.0,0.0,0.0,0.0,0.0,0.0,0.0,0.0,-4.5816015944479396e-05,-0.00021190610554201267,1.1819657168815307e-05,0.0,0.0,0.0,0.0,0.0,0.0,0.0,0.0,0.0,1.190135792491439e-10,3.9074211424686327e-10,-2.3798875867289367e-11,0.0,0.0,0.0,0.0,0.0,0.0,0.0,0.0,0.0
1796.677,92,1796,678000000,base_footprint,-7.267534051829998e-06,0.0015896377402281406,0.0035293715272972054,0.9999925082397669,0.0,0.0,0.0,0.0,0.0,0.0,0.0,0.0,0.0,-4.581601423534152e-05,-0.00021190610599091717,1.1819659597269002e-05,0.0,0.0,0.0,0.0,0.0,0.0,0.0,0.0,0.0,1.1986530412527658e-10,3.936168169319407e-10,-2.3478834897520502e-11,0.0,0.0,0.0,0.0,0.0,0.0,0.0,0.0,0.0
1796.679,93,1796,679000000,base_footprint,-7.267537589887915e-06,0.0015896377402155732,0.003529373756175461,0.9999925082319003,0.0,0.0,0.0,0.0,0.0,0.0,0.0,0.0,0.0,-4.581601254458059e-05,-0.0002119061064643217,1.1819662013728245e-05,0.0,0.0,0.0,0.0,0.0,0.0,0.0,0.0,0.0,1.1926399207701063e-10,3.916318115779041e-10,-2.5023548507595054e-11,0.0,0.0,0.0,0.0,0.0,0.0,0.0,0.0,0.0
1796.68,94,1796,680000000,base_footprint,-7.267541127945362e-06,0.0015896377402030081,0.003529375985053898,0.9999925082240337,0.0,0.0,0.0,0.0,0.0,0.0,0.0,0.0,0.0,-4.581601085926946e-05,-0.0002119061069390338,1.1819664420988502e-05,0.0,0.0,0.0,0.0,0.0,0.0,0.0,0.0,0.0,1.1879899056887529e-10,3.9012506859028146e-10,-2.1993859721660524e-11,0.0,0.0,0.0,0.0,0.0,0.0,0.0,0.0,0.0
1796.683,95,1796,681000000,base_footprint,-7.2675446660194745e-06,0.001589637740190443,0.0035293782139325224,0.9999925082161671,0.0,0.0,0.0,0.0,0.0,0.0,0.0,0.0,0.0,-4.581600920816904e-05,-0.00021190610741866211,1.1819666840734663e-05,0.0,0.0,0.0,0.0,0.0,0.0,0.0,0.0,0.0,1.1944145786057747e-10,3.921082876242767e-10,-2.2295763870481097e-11,0.0,0.0,0.0,0.0,0.0,0.0,0.0,0.0,0.0
1796.683,96,1796,682000000,base_footprint,-7.267548204089931e-06,0.0015896377401778722,0.003529380442811343,0.9999925082083003,0.0,0.0,0.0,0.0,0.0,0.0,0.0,0.0,0.0,-4.5816007515755586e-05,-0.0002119061079088124,1.1819669278448193e-05,0.0,0.0,0.0,0.0,0.0,0.0,0.0,0.0,0.0,1.2038867395684961e-10,3.9509956502781967e-10,-2.145000582458767e-11,0.0,0.0,0.0,0.0,0.0,0.0,0.0,0.0,0.0
1796.683,97,1796,683000000,base_footprint,-7.267551742152063e-06,0.0015896377401653041,0.00352938267169035,0.9999925082004337,0.0,0.0,0.0,0.0,0.0,0.0,0.0,0.0,0.0,-4.5816005814588655e-05,-0.00021190610838320526,1.1819671693252844e-05,0.0,0.0,0.0,0.0,0.0,0.0,0.0,0.0,0.0,1.191948020309112e-10,3.913777124087394e-10,-2.083222246766141e-11,0.0,0.0,0.0,0.0,0.0,0.0,0.0,0.0,0.0
1796.684,98,1796,684000000,base_footprint,-7.26755528021923e-06,0.0015896377401527278,0.0035293849005695395,0.9999925081925671,0.0,0.0,0.0,0.0,0.0,0.0,0.0,0.0,0.0,-4.581600414011911e-05,-0.0002119061088789844,1.1819674103616016e-05,0.0,0.0,0.0,0.0,0.0,0.0,0.0,0.0,0.0,1.1897900596254696e-10,3.9061454179615923e-10,-2.1775665106889823e-11,0.0,0.0,0.0,0.0,0.0,0.0,0.0,0.0,0.0
1796.685,99,1796,685000000,base_footprint,-7.2675588182884935e-06,0.001589637740140154,0.00352938712944893,0.9999925081847005,0.0,0.0,0.0,0.0,0.0,0.0,0.0,0.0,0.0,-4.58160024592778e-05,-0.00021190610935323866,1.1819676548763167e-05,0.0,0.0,0.0,0.0,0.0,0.0,0.0,0.0,0.0,1.2074827317499792e-10,3.962949984639613e-10,-2.31434044017983e-11,0.0,0.0,0.0,0.0,0.0,0.0,0.0,0.0,0.0
1796.687,100,1796,686000000,base_footprint,-7.267562356349059e-06,0.001589637740127565,0.0035293893583285114,0.9999925081768339,0.0,0.0,0.0,0.0,0.0,0.0,0.0,0.0,0.0,-4.5816000756939924e-05,-0.00021190610986325428,1.1819678974762728e-05,0.0,0.0,0.0,0.0,0.0,0.0,0.0,0.0,0.0,1.1981315304920722e-10,3.9320393313933155e-10,-1.9369030394850716e-11,0.0,0.0,0.0,0.0,0.0,0.0,0.0,0.0,0.0
1796.687,101,1796,687000000,base_footprint,-7.267565894423249e-06,0.0015896377401149844,0.0035293915872082688,0.9999925081689671,0.0,0.0,0.0,0.0,0.0,0.0,0.0,0.0,0.0,-4.5815999100159024e-05,-0.0002119061103251503,1.181968137306092e-05,0.0,0.0,0.0,0.0,0.0,0.0,0.0,0.0,0.0,1.18320884067948e-10,3.886202104667675e-10,-2.1496567376956987e-11,0.0,0.0,0.0,0.0,0.0,0.0,0.0,0.0,0.0
1796.688,102,1796,688000000,base_footprint,-7.267569432481988e-06,0.0015896377401024063,0.0035293938160882096,0.9999925081611006,0.0,0.0,0.0,0.0,0.0,0.0,0.0,0.0,0.0,-4.5815997384651575e-05,-0.0002119061108005125,1.1819683780580947e-05,0.0,0.0,0.0,0.0,0.0,0.0,0.0,0.0,0.0,1.1881055588553295e-10,3.902150206362137e-10,-2.4078592990390117e-11,0.0,0.0,0.0,0.0,0.0,0.0,0.0,0.0,0.0
1796.689,103,1796,689000000,base_footprint,-7.267572970555078e-06,0.0015896377400898313,0.0035293960449683352,0.9999925081532339,0.0,0.0,0.0,0.0,0.0,0.0,0.0,0.0,0.0,-4.5815995729116396e-05,-0.00021190611127337196,1.1819686196064076e-05,0.0,0.0,0.0,0.0,0.0,0.0,0.0,0.0,0.0,1.1921100603646793e-10,3.914203746040031e-10,-2.3646668115308693e-11,0.0,0.0,0.0,0.0,0.0,0.0,0.0,0.0,0.0
1796.69,104,1796,690000000,base_footprint,-7.267576508617682e-06,0.0015896377400772533,0.003529398273848655,0.9999925081453672,0.0,0.0,0.0,0.0,0.0,0.0,0.0,0.0,0.0,-4.581599402312221e-05,-0.00021190611175846735,1.181968862849522e-05,0.0,0.0,0.0,0.0,0.0,0.0,0.0,0.0,0.0,1.2010623537595063e-10,3.942597674151354e-10,-2.3571903902085732e-11,0.0,0.0,0.0,0.0,0.0,0.0,0.0,0.0,0.0
1796.691,105,1796,691000000,base_footprint,-7.267580046682935e-06,0.0015896377400646789,0.0035294005027291624,0.9999925081375005,0.0,0.0,0.0,0.0,0.0,0.0,0.0,0.0,0.0,-4.581599234398937e-05,-0.0002119061122304248,1.1819691047941425e-05,0.0,0.0,0.0,0.0,0.0,0.0,0.0,0.0,0.0,1.1943316802502732e-10,3.921011770043216e-10,-1.9197363298668774e-11,0.0,0.0,0.0,0.0,0.0,0.0,0.0,0.0,0.0
1796.692,106,1796,692000000,base_footprint,-7.267583584757013e-06,0.0015896377400521113,0.0035294027316098613,0.9999925081296338,0.0,0.0,0.0,0.0,0.0,0.0,0.0,0.0,0.0,-4.5815990677078465e-05,-0.00021190611269660627,1.1819693475913036e-05,0.0,0.0,0.0,0.0,0.0,0.0,0.0,0.0,0.0,1.1985019316334977e-10,3.9347301745423374e-10,-2.3783696309154678e-11,0.0,0.0,0.0,0.0,0.0,0.0,0.0,0.0,0.0
1796.693,107,1796,693000000,base_footprint,-7.267587122829325e-06,0.0015896377400395345,0.0035294049604907536,0.9999925081217671,0.0,0.0,0.0,0.0,0.0,0.0,0.0,0.0,0.0,-4.5815988988524126e-05,-0.0002119061131941779,1.1819695906533493e-05,0.0,0.0,0.0,0.0,0.0,0.0,0.0,0.0,0.0,1.2002848446715865e-10,3.939373788501684e-10,-2.1784413429433354e-11,0.0,0.0,0.0,0.0,0.0,0.0,0.0,0.0,0.0
1796.695,108,1796,694000000,base_footprint,-7.267590660889758e-06,0.0015896377400269573,0.0035294071893718234,0.9999925081139006,0.0,0.0,0.0,0.0,0.0,0.0,0.0,0.0,0.0,-4.581598728040036e-05,-0.00021190611367470063,1.1819698303214657e-05,0.0,0.0,0.0,0.0,0.0,0.0,0.0,0.0,0.0,1.1826033264517883e-10,3.884346391689345e-10,-2.285452317400666e-11,0.0,0.0,0.0,0.0,0.0,0.0,0.0,0.0,0.0
1796.695,109,1796,695000000,base_footprint,-7.267594198954726e-06,0.0015896377400143808,0.0035294094182530796,0.9999925081060338,0.0,0.0,0.0,0.0,0.0,0.0,0.0,0.0,0.0,-4.581598560494728e-05,-0.00021190611415172425,1.1819700723329421e-05,0.0,0.0,0.0,0.0,0.0,0.0,0.0,0.0,0.0,1.19461625602222e-10,3.922074944150197e-10,-2.2049132722208317e-11,0.0,0.0,0.0,0.0,0.0,0.0,0.0,0.0,0.0
1796.695,110,1796,696000000,base_footprint,-7.267597737022698e-06,0.0015896377400018097,0.0035294116471345145,0.9999925080981672,0.0,0.0,0.0,0.0,0.0,0.0,0.0,0.0,0.0,-4.581598392676583e-05,-0.00021190611462135165,1.1819703123255311e-05,0.0,0.0,0.0,0.0,0.0,0.0,0.0,0.0,0.0,1.1841108070008523e-10,3.889179323085593e-10,-2.3090796176307695e-11,0.0,0.0,0.0,0.0,0.0,0.0,0.0,0.0,0.0
1796.697,111,1796,697000000,base_footprint,-7.267601275093886e-06,0.0015896377399892308,0.003529413876016135,0.9999925080903004,0.0,0.0,0.0,0.0,0.0,0.0,0.0,0.0,0.0,-4.5815982248448696e-05,-0.00021190611511547224,1.1819705540854977e-05,0.0,0.0,0.0,0.0,0.0,0.0,0.0,0.0,0.0,1.193575100313789e-10,3.918007543537658e-10,-1.9704957925269747e-11,0.0,0.0,0.0,0.0,0.0,0.0,0.0,0.0,0.0
1796.698,112,1796,698000000,base_footprint,-7.267604813162166e-06,0.0015896377399766545,0.003529416104897945,0.9999925080824336,0.0,0.0,0.0,0.0,0.0,0.0,0.0,0.0,0.0,-4.581598055802053e-05,-0.00021190611558933196,1.1819707963351449e-05,0.0,0.0,0.0,0.0,0.0,0.0,0.0,0.0,0.0,1.1958230275887138e-10,3.9261627710603047e-10,-2.2841208572487826e-11,0.0,0.0,0.0,0.0,0.0,0.0,0.0,0.0,0.0
1796.699,113,1796,699000000,base_footprint,-7.267608351234174e-06,0.0015896377399640788,0.0035294183337799467,0.9999925080745669,0.0,0.0,0.0,0.0,0.0,0.0,0.0,0.0,0.0,-4.581597888082705e-05,-0.0002119061160680669,1.1819710390292942e-05,0.0,0.0,0.0,0.0,0.0,0.0,0.0,0.0,0.0,1.1981682565669125e-10,3.9332039124865894e-10,-2.2103823419073835e-11,0.0,0.0,0.0,0.0,0.0,0.0,0.0,0.0,0.0
1796.7,114,1796,700000000,base_footprint,-7.267611889296978e-06,0.0015896377399515008,0.003529420562662133,0.9999925080667001,0.0,0.0,0.0,0.0,0.0,0.0,0.0,0.0,0.0,-4.5815977177740886e-05,-0.00021190611655177836,1.1819712803739639e-05,0.0,0.0,0.0,0.0,0.0,0.0,0.0,0.0,0.0,1.1912652510016833e-10,3.911599854202501e-10,-2.317705972261644e-11,0.0,0.0,0.0,0.0,0.0,0.0,0.0,0.0,0.0
1796.701,115,1796,701000000,base_footprint,-7.267615427374945e-06,0.001589637739938928,0.003529422791544508,0.9999925080588334,0.0,0.0,0.0,0.0,0.0,0.0,0.0,0.0,0.0,-4.581597552371604e-05,-0.00021190611702106635,1.1819715224534129e-05,0.0,0.0,0.0,0.0,0.0,0.0,0.0,0.0,0.0,1.194827305488289e-10,3.9228382708289377e-10,-2.3142110237202096e-11,0.0,0.0,0.0,0.0,0.0,0.0,0.0,0.0,0.0
1796.702,116,1796,702000000,base_footprint,-7.2676189654552215e-06,0.0015896377399263575,0.003529425020427075,0.9999925080509667,0.0,0.0,0.0,0.0,0.0,0.0,0.0,0.0,0.0,-4.5815973843577963e-05,-0.00021190611749591996,1.1819717653906189e-05,0.0,0.0,0.0,0.0,0.0,0.0,0.0,0.0,0.0,1.1994442417058356e-10,3.9372109963296807e-10,-2.034378434988836e-11,0.0,0.0,0.0,0.0,0.0,0.0,0.0,0.0,0.0
1796.703,117,1796,703000000,base_footprint,-7.267622503522083e-06,0.0015896377399137838,0.003529427249309818,0.9999925080431,0.0,0.0,0.0,0.0,0.0,0.0,0.0,0.0,0.0,-4.5815972132390165e-05,-0.00021190611798145982,1.181972004981977e-05,0.0,0.0,0.0,0.0,0.0,0.0,0.0,0.0,0.0,1.1822778682628495e-10,3.883137592092099e-10,-2.242509751474107e-11,0.0,0.0,0.0,0.0,0.0,0.0,0.0,0.0,0.0
1796.703,118,1796,704000000,base_footprint,-7.267626041597441e-06,0.0015896377399012061,0.0035294294781927577,0.9999925080352333,0.0,0.0,0.0,0.0,0.0,0.0,0.0,0.0,0.0,-4.581597046445975e-05,-0.00021190611846847484,1.1819722487394298e-05,0.0,0.0,0.0,0.0,0.0,0.0,0.0,0.0,0.0,1.2036398003261564e-10,3.950420488689329e-10,-2.4293579012296746e-11,0.0,0.0,0.0,0.0,0.0,0.0,0.0,0.0,0.0
1796.704,119,1796,705000000,base_footprint,-7.267629579661637e-06,0.001589637739888638,0.003529431707075879,0.9999925080273666,0.0,0.0,0.0,0.0,0.0,0.0,0.0,0.0,0.0,-4.5815968757786814e-05,-0.00021190611892860846,1.181972489554177e-05,0.0,0.0,0.0,0.0,0.0,0.0,0.0,0.0,0.0,1.1884166600479966e-10,3.9030093933944865e-10,-1.9635475724001155e-11,0.0,0.0,0.0,0.0,0.0,0.0,0.0,0.0,0.0
1796.706,120,1796,706000000,base_footprint,-7.267633117737255e-06,0.0015896377398760659,0.003529433935959194,0.9999925080194997,0.0,0.0,0.0,0.0,0.0,0.0,0.0,0.0,0.0,-4.58159670959747e-05,-0.00021190611941547183,1.181972732824863e-05,0.0,0.0,0.0,0.0,0.0,0.0,0.0,0.0,0.0,1.2011569069149668e-10,3.942378527774353e-10,-2.3249259737410012e-11,0.0,0.0,0.0,0.0,0.0,0.0,0.0,0.0,0.0
1796.709,121,1796,707000000,base_footprint,-7.2676366558043825e-06,0.0015896377398634906,0.0035294361648426954,0.999992508011633,0.0,0.0,0.0,0.0,0.0,0.0,0.0,0.0,0.0,-4.581596539420863e-05,-0.00021190611990156913,1.181972974366843e-05,0.0,0.0,0.0,0.0,0.0,0.0,0.0,0.0,0.0,1.1922859059212107e-10,3.9147921063662795e-10,-2.3811742034691635e-11,0.0,0.0,0.0,0.0,0.0,0.0,0.0,0.0,0.0
1796.709,123,1796,709000000,base_footprint,-7.267643731953361e-06,0.0015896377398383335,0.003529440622610261,0.9999925079958993,0.0,0.0,0.0,0.0,0.0,0.0,0.0,0.0,0.0,-4.5815962051938074e-05,-0.00021190612087874518,1.1819734582591044e-05,0.0,0.0,0.0,0.0,0.0,0.0,0.0,0.0,0.0,1.194395524156596e-10,3.9201622914284403e-10,-1.9968178609168682e-11,0.0,0.0,0.0,0.0,0.0,0.0,0.0,0.0,0.0
1796.709,124,1796,710000000,base_footprint,-7.2676472700287104e-06,0.0015896377398257515,0.0035294428514943146,0.9999925079880327,0.0,0.0,0.0,0.0,0.0,0.0,0.0,0.0,0.0,-4.5815960357012875e-05,-0.00021190612135428197,1.1819736979069148e-05,0.0,0.0,0.0,0.0,0.0,0.0,0.0,0.0,0.0,1.1823824024272826e-10,3.883818340034746e-10,-2.4160982872680873e-11,0.0,0.0,0.0,0.0,0.0,0.0,0.0,0.0,0.0
1796.711,125,1796,711000000,base_footprint,-7.2676508080937345e-06,0.0015896377398131709,0.0035294450803785575,0.9999925079801659,0.0,0.0,0.0,0.0,0.0,0.0,0.0,0.0,0.0,-4.581595865174104e-05,-0.0002119061218298769,1.1819739403120125e-05,0.0,0.0,0.0,0.0,0.0,0.0,0.0,0.0,0.0,1.1966665763419825e-10,3.9289405727105957e-10,-2.257123167685081e-11,0.0,0.0,0.0,0.0,0.0,0.0,0.0,0.0,0.0
1796.712,126,1796,712000000,base_footprint,-7.2676543461709745e-06,0.0015896377398005996,0.003529447309262993,0.9999925079722991,0.0,0.0,0.0,0.0,0.0,0.0,0.0,0.0,0.0,-4.5815956991692306e-05,-0.00021190612229084576,1.1819741833168353e-05,0.0,0.0,0.0,0.0,0.0,0.0,0.0,0.0,0.0,1.1995144730642544e-10,3.9380101514954857e-10,-2.360201541762941e-11,0.0,0.0,0.0,0.0,0.0,0.0,0.0,0.0,0.0
1796.713,127,1796,713000000,base_footprint,-7.267657884243532e-06,0.001589637739788029,0.0035294495381476177,0.9999925079644323,0.0,0.0,0.0,0.0,0.0,0.0,0.0,0.0,0.0,-4.581595529760752e-05,-0.0002119061227681579,1.1819744255624052e-05,0.0,0.0,0.0,0.0,0.0,0.0,0.0,0.0,0.0,1.1958366359716783e-10,3.9261437204061076e-10,-2.313585314389175e-11,0.0,0.0,0.0,0.0,0.0,0.0,0.0,0.0,0.0
1796.714,128,1796,714000000,base_footprint,-7.267661422308818e-06,0.00158963773977546,0.003529451767032436,0.9999925079565655,0.0,0.0,0.0,0.0,0.0,0.0,0.0,0.0,0.0,-4.5815953598277376e-05,-0.00021190612324487016,1.1819746687078672e-05,0.0,0.0,0.0,0.0,0.0,0.0,0.0,0.0,0.0,1.2005222973926346e-10,3.9409082719384825e-10,-2.162899728375994e-11,0.0,0.0,0.0,0.0,0.0,0.0,0.0,0.0,0.0
1796.714,129,1796,715000000,base_footprint,-7.267664960384371e-06,0.0015896377397628778,0.0035294539959174285,0.9999925079486987,0.0,0.0,0.0,0.0,0.0,0.0,0.0,0.0,0.0,-4.581595193447425e-05,-0.00021190612375052438,1.1819749078952982e-05,0.0,0.0,0.0,0.0,0.0,0.0,0.0,0.0,0.0,1.1803509703338586e-10,3.8758263416602035e-10,-2.144735110557234e-11,0.0,0.0,0.0,0.0,0.0,0.0,0.0,0.0,0.0
1796.716,130,1796,716000000,base_footprint,-7.2676684984650285e-06,0.001589637739750301,0.003529456224802607,0.9999925079408318,0.0,0.0,0.0,0.0,0.0,0.0,0.0,0.0,0.0,-4.5815950260141016e-05,-0.00021190612421899695,1.1819751495638242e-05,0.0,0.0,0.0,0.0,0.0,0.0,0.0,0.0,0.0,1.1927501610201757e-10,3.916462676111642e-10,-2.2374512470869684e-11,0.0,0.0,0.0,0.0,0.0,0.0,0.0,0.0,0.0
1796.717,131,1796,717000000,base_footprint,-7.267672036531845e-06,0.0015896377397377223,0.003529458453687973,0.999992507932965,0.0,0.0,0.0,0.0,0.0,0.0,0.0,0.0,0.0,-4.5815948547728706e-05,-0.00021190612470227058,1.181975391538374e-05,0.0,0.0,0.0,0.0,0.0,0.0,0.0,0.0,0.0,1.1946067217840892e-10,3.9220157719603144e-10,-2.0514691223773516e-11,0.0,0.0,0.0,0.0,0.0,0.0,0.0,0.0,0.0
1796.718,132,1796,718000000,base_footprint,-7.267675574608448e-06,0.0015896377397251421,0.0035294606825735323,0.9999925079250982,0.0,0.0,0.0,0.0,0.0,0.0,0.0,0.0,0.0,-4.581594688260553e-05,-0.00021190612518471805,1.1819756345911464e-05,0.0,0.0,0.0,0.0,0.0,0.0,0.0,0.0,0.0,1.2000156105947792e-10,3.9388696444058054e-10,-2.264921944772003e-11,0.0,0.0,0.0,0.0,0.0,0.0,0.0,0.0,0.0
1796.718,133,1796,719000000,base_footprint,-7.267679112694125e-06,0.0015896377397125669,0.0035294629114592775,0.9999925079172314,0.0,0.0,0.0,0.0,0.0,0.0,0.0,0.0,0.0,-4.581594521628044e-05,-0.00021190612565423389,1.1819758762353142e-05,0.0,0.0,0.0,0.0,0.0,0.0,0.0,0.0,0.0,1.1926467810874218e-10,3.9159166358157184e-10,-2.1985261219835644e-11,0.0,0.0,0.0,0.0,0.0,0.0,0.0,0.0,0.0
1796.72,134,1796,720000000,base_footprint,-7.267682650764643e-06,0.0015896377396999953,0.003529465140345212,0.9999925079093646,0.0,0.0,0.0,0.0,0.0,0.0,0.0,0.0,0.0,-4.581594350123913e-05,-0.0002119061261258836,1.1819761184530496e-05,0.0,0.0,0.0,0.0,0.0,0.0,0.0,0.0,0.0,1.1956246023092737e-10,3.9260239176850663e-10,-2.435291019801145e-11,0.0,0.0,0.0,0.0,0.0,0.0,0.0,0.0,0.0
1796.721,135,1796,721000000,base_footprint,-7.267686188837282e-06,0.0015896377396874275,0.0035294673692313344,0.9999925079014977,0.0,0.0,0.0,0.0,0.0,0.0,0.0,0.0,0.0,-4.581594182101399e-05,-0.00021190612659761416,1.1819763604482588e-05,0.0,0.0,0.0,0.0,0.0,0.0,0.0,0.0,0.0,1.1944515131814714e-10,3.921864618131609e-10,-2.338537943305751e-11,0.0,0.0,0.0,0.0,0.0,0.0,0.0,0.0,0.0
1796.722,136,1796,722000000,base_footprint,-7.26768972691852e-06,0.0015896377396748668,0.003529469598117645,0.9999925078936309,0.0,0.0,0.0,0.0,0.0,0.0,0.0,0.0,0.0,-4.581594015379634e-05,-0.00021190612706293302,1.1819766025333153e-05,0.0,0.0,0.0,0.0,0.0,0.0,0.0,0.0,0.0,1.194785734329016e-10,3.9231292548542775e-10,-2.4775924279140024e-11,0.0,0.0,0.0,0.0,0.0,0.0,0.0,0.0,0.0
1796.723,137,1796,723000000,base_footprint,-7.267693264994664e-06,0.0015896377396622948,0.0035294718270041433,0.9999925078857639,0.0,0.0,0.0,0.0,0.0,0.0,0.0,0.0,0.0,-4.581593845868983e-05,-0.00021190612756405926,1.1819768446227052e-05,0.0,0.0,0.0,0.0,0.0,0.0,0.0,0.0,0.0,1.195384579232173e-10,3.9236224252524337e-10,-1.9439096996922573e-11,0.0,0.0,0.0,0.0,0.0,0.0,0.0,0.0,0.0
1796.724,138,1796,724000000,base_footprint,-7.267696803072174e-06,0.0015896377396497267,0.003529474055890822,0.9999925078778971,0.0,0.0,0.0,0.0,0.0,0.0,0.0,0.0,0.0,-4.5815936777203336e-05,-0.0002119061280362875,1.1819770849917062e-05,0.0,0.0,0.0,0.0,0.0,0.0,0.0,0.0,0.0,1.1861425365896292e-10,3.8953705926862656e-10,-2.1147155401366856e-11,0.0,0.0,0.0,0.0,0.0,0.0,0.0,0.0,0.0
1796.725,139,1796,725000000,base_footprint,-7.267700341149978e-06,0.0015896377396371441,0.0035294762847776955,0.9999925078700302,0.0,0.0,0.0,0.0,0.0,0.0,0.0,0.0,0.0,-4.5815935092621195e-05,-0.0002119061285449604,1.1819773284031399e-05,0.0,0.0,0.0,0.0,0.0,0.0,0.0,0.0,0.0,1.2022183270624078e-10,3.9450218997566643e-10,-2.0716169960940945e-11,0.0,0.0,0.0,0.0,0.0,0.0,0.0,0.0,0.0
1796.726,140,1796,726000000,base_footprint,-7.267703879228113e-06,0.0015896377396245633,0.003529478513664743,0.9999925078621634,0.0,0.0,0.0,0.0,0.0,0.0,0.0,0.0,0.0,-4.581593340909088e-05,-0.00021190612902060132,1.1819775676157359e-05,0.0,0.0,0.0,0.0,0.0,0.0,0.0,0.0,0.0,1.1802120678068886e-10,3.8765373628043556e-10,-2.1424642116031684e-11,0.0,0.0,0.0,0.0,0.0,0.0,0.0,0.0,0.0
1796.727,141,1796,727000000,base_footprint,-7.2677074173066725e-06,0.0015896377396119863,0.00352948074255199,0.9999925078542965,0.0,0.0,0.0,0.0,0.0,0.0,0.0,0.0,0.0,-4.581593172500433e-05,-0.0002119061294922235,1.1819778118941015e-05,0.0,0.0,0.0,0.0,0.0,0.0,0.0,0.0,0.0,1.2062414964846545e-10,3.959160496765532e-10,-2.289148441458352e-11,0.0,0.0,0.0,0.0,0.0,0.0,0.0,0.0,0.0
1796.728,142,1796,728000000,base_footprint,-7.267710955393471e-06,0.0015896377395994195,0.0035294829714394315,0.9999925078464296,0.0,0.0,0.0,0.0,0.0,0.0,0.0,0.0,0.0,-4.581593005696349e-05,-0.00021190612995102828,1.1819780552212617e-05,0.0,0.0,0.0,0.0,0.0,0.0,0.0,0.0,0.0,1.2011203816280893e-10,3.943377003557436e-10,-2.523326273098599e-11,0.0,0.0,0.0,0.0,0.0,0.0,0.0,0.0,0.0
1796.729,143,1796,729000000,base_footprint,-7.2677144934773774e-06,0.0015896377395868497,0.003529485200327052,0.9999925078385629,0.0,0.0,0.0,0.0,0.0,0.0,0.0,0.0,0.0,-4.581592836674331e-05,-0.00021190613043769668,1.1819782952524552e-05,0.0,0.0,0.0,0.0,0.0,0.0,0.0,0.0,0.0,1.184539446869224e-10,3.889984551521962e-10,-2.1948837141116576e-11,0.0,0.0,0.0,0.0,0.0,0.0,0.0,0.0,0.0
1796.73,144,1796,730000000,base_footprint,-7.2677180315531055e-06,0.0015896377395742808,0.003529487429214852,0.9999925078306959,0.0,0.0,0.0,0.0,0.0,0.0,0.0,0.0,0.0,-4.5815926665964334e-05,-0.00021190613091411932,1.1819785357614843e-05,0.0,0.0,0.0,0.0,0.0,0.0,0.0,0.0,0.0,1.1869288072541963e-10,3.8979640510189433e-10,-2.1198241096726734e-11,0.0,0.0,0.0,0.0,0.0,0.0,0.0,0.0,0.0
1796.731,145,1796,731000000,base_footprint,-7.267721569630799e-06,0.0015896377395616997,0.0035294896581028377,0.999992507822829,0.0,0.0,0.0,0.0,0.0,0.0,0.0,0.0,0.0,-4.581592498521402e-05,-0.00021190613141808623,1.181978777344822e-05,0.0,0.0,0.0,0.0,0.0,0.0,0.0,0.0,0.0,1.192774062102798e-10,3.915160896927975e-10,-1.9482074401624785e-11,0.0,0.0,0.0,0.0,0.0,0.0,0.0,0.0,0.0
1796.732,146,1796,732000000,base_footprint,-7.267725107710509e-06,0.001589637739549115,0.003529491886991012,0.9999925078149621,0.0,0.0,0.0,0.0,0.0,0.0,0.0,0.0,0.0,-4.581592330448765e-05,-0.00021190613190444612,1.1819790194617594e-05,0.0,0.0,0.0,0.0,0.0,0.0,0.0,0.0,0.0,1.1952832506823998e-10,3.92385365587632e-10,-2.164603786667732e-11,0.0,0.0,0.0,0.0,0.0,0.0,0.0,0.0,0.0
1796.733,147,1796,733000000,base_footprint,-7.267728645792055e-06,0.0015896377395365363,0.0035294941158793753,0.9999925078070951,0.0,0.0,0.0,0.0,0.0,0.0,0.0,0.0,0.0,-4.5815921623598985e-05,-0.00021190613237177116,1.1819792617352938e-05,0.0,0.0,0.0,0.0,0.0,0.0,0.0,0.0,0.0,1.1958763314121834e-10,3.926405933677985e-10,-2.244621561535085e-11,0.0,0.0,0.0,0.0,0.0,0.0,0.0,0.0,0.0
1796.734,148,1796,734000000,base_footprint,-7.267732183878827e-06,0.0015896377395239632,0.0035294963447679204,0.9999925077992282,0.0,0.0,0.0,0.0,0.0,0.0,0.0,0.0,0.0,-4.581591994980893e-05,-0.00021190613284011316,1.181979502544502e-05,0.0,0.0,0.0,0.0,0.0,0.0,0.0,0.0,0.0,1.1883281482971416e-10,3.902422288866764e-10,-2.2289999918443447e-11,0.0,0.0,0.0,0.0,0.0,0.0,0.0,0.0,0.0
1796.735,149,1796,735000000,base_footprint,-7.267735721951498e-06,0.0015896377395113858,0.003529498573656664,0.9999925077913613,0.0,0.0,0.0,0.0,0.0,0.0,0.0,0.0,0.0,-4.581591823643352e-05,-0.00021190613332770767,1.1819797466658418e-05,0.0,0.0,0.0,0.0,0.0,0.0,0.0,0.0,0.0,1.2057180512772545e-10,3.9570384577282017e-10,-2.056015770631772e-11,0.0,0.0,0.0,0.0,0.0,0.0,0.0,0.0,0.0
1796.736,150,1796,736000000,base_footprint,-7.267739260031361e-06,0.0015896377394988047,0.003529500802545587,0.9999925077834944,0.0,0.0,0.0,0.0,0.0,0.0,0.0,0.0,0.0,-4.581591656651915e-05,-0.00021190613381464322,1.1819799869113987e-05,0.0,0.0,0.0,0.0,0.0,0.0,0.0,0.0,0.0,1.1855289830853498e-10,3.8931628800297075e-10,-2.4712988220622725e-11,0.0,0.0,0.0,0.0,0.0,0.0,0.0,0.0,0.0
1796.737,151,1796,737000000,base_footprint,-7.267742798112433e-06,0.0015896377394862282,0.0035295030314346915,0.9999925077756274,0.0,0.0,0.0,0.0,0.0,0.0,0.0,0.0,0.0,-4.581591488454988e-05,-0.00021190613428476106,1.1819802276255065e-05,0.0,0.0,0.0,0.0,0.0,0.0,0.0,0.0,0.0,1.1877974015387346e-10,3.9010124461571245e-10,-2.4286002933870614e-11,0.0,0.0,0.0,0.0,0.0,0.0,0.0,0.0,0.0
1796.738,152,1796,738000000,base_footprint,-7.2677463361932695e-06,0.0015896377394736534,0.0035295052603239786,0.9999925077677605,0.0,0.0,0.0,0.0,0.0,0.0,0.0,0.0,0.0,-4.581591319963393e-05,-0.0002119061347608806,1.181980468611629e-05,0.0,0.0,0.0,0.0,0.0,0.0,0.0,0.0,0.0,1.1893516876081124e-10,3.905489746308548e-10,-2.1618192265258685e-11,0.0,0.0,0.0,0.0,0.0,0.0,0.0,0.0,0.0
1796.74,153,1796,739000000,base_footprint,-7.267749874275786e-06,0.0015896377394610873,0.003529507489213459,0.9999925077598936,0.0,0.0,0.0,0.0,0.0,0.0,0.0,0.0,0.0,-4.581591151833268e-05,-0.00021190613522235188,1.1819807117267836e-05,0.0,0.0,0.0,0.0,0.0,0.0,0.0,0.0,0.0,1.2000554082764744e-10,3.9401397128523324e-10,-2.5589782824662726e-11,0.0,0.0,0.0,0.0,0.0,0.0,0.0,0.0,0.0
1796.74,154,1796,740000000,base_footprint,-7.26775341235907e-06,0.0015896377394485155,0.003529509718103129,0.9999925077520266,0.0,0.0,0.0,0.0,0.0,0.0,0.0,0.0,0.0,-4.58159098352414e-05,-0.00021190613571343733,1.1819809540376245e-05,0.0,0.0,0.0,0.0,0.0,0.0,0.0,0.0,0.0,1.196348193322778e-10,3.9270377770679e-10,-2.1412250038154462e-11,0.0,0.0,0.0,0.0,0.0,0.0,0.0,0.0,0.0
1796.741,155,1796,741000000,base_footprint,-7.267756950443892e-06,0.0015896377394359388,0.0035295119469929905,0.9999925077441597,0.0,0.0,0.0,0.0,0.0,0.0,0.0,0.0,0.0,-4.581590815345108e-05,-0.00021190613620261826,1.1819811966724307e-05,0.0,0.0,0.0,0.0,0.0,0.0,0.0,0.0,0.0,1.198044150173573e-10,3.9323069520143765e-10,-1.98503579256711e-11,0.0,0.0,0.0,0.0,0.0,0.0,0.0,0.0,0.0
1796.742,156,1796,742000000,base_footprint,-7.267760488521482e-06,0.001589637739423359,0.003529514175883043,0.9999925077362928,0.0,0.0,0.0,0.0,0.0,0.0,0.0,0.0,0.0,-4.5815906454163765e-05,-0.00021190613668794757,1.1819814393589102e-05,0.0,0.0,0.0,0.0,0.0,0.0,0.0,0.0,0.0,1.1982851063303597e-10,3.93342127570081e-10,-2.0261860329032367e-11,0.0,0.0,0.0,0.0,0.0,0.0,0.0,0.0,0.0
1796.743,157,1796,743000000,base_footprint,-7.267764026605353e-06,0.001589637739410776,0.003529516404773275,0.9999925077284259,0.0,0.0,0.0,0.0,0.0,0.0,0.0,0.0,0.0,-4.5815904782328636e-05,-0.0002119061371739526,1.1819816797069315e-05,0.0,0.0,0.0,0.0,0.0,0.0,0.0,0.0,0.0,1.186164070514659e-10,3.894874203530156e-10,-2.0996124171265368e-11,0.0,0.0,0.0,0.0,0.0,0.0,0.0,0.0,0.0
1796.744,158,1796,744000000,base_footprint,-7.267767564692022e-06,0.0015896377393981882,0.003529518633663687,0.9999925077205588,0.0,0.0,0.0,0.0,0.0,0.0,0.0,0.0,0.0,-4.581590310338951e-05,-0.00021190613766251871,1.1819819202267653e-05,0.0,0.0,0.0,0.0,0.0,0.0,0.0,0.0,0.0,1.1870211161210124e-10,3.8977990019192295e-10,-2.284653677880825e-11,0.0,0.0,0.0,0.0,0.0,0.0,0.0,0.0,0.0
1796.745,159,1796,745000000,base_footprint,-7.2677711027738795e-06,0.0015896377393856112,0.0035295208625542827,0.9999925077126918,0.0,0.0,0.0,0.0,0.0,0.0,0.0,0.0,0.0,-4.5815901409462183e-05,-0.00021190613811973542,1.1819821612949845e-05,0.0,0.0,0.0,0.0,0.0,0.0,0.0,0.0,0.0,1.1895092617162118e-10,3.9069694687142215e-10,-2.439575582196016e-11,0.0,0.0,0.0,0.0,0.0,0.0,0.0,0.0,0.0
1796.746,160,1796,746000000,base_footprint,-7.267774640860088e-06,0.0015896377393730492,0.0035295230914450778,0.9999925077048248,0.0,0.0,0.0,0.0,0.0,0.0,0.0,0.0,0.0,-4.581589973350203e-05,-0.00021190613856978405,1.1819824055902506e-05,0.0,0.0,0.0,0.0,0.0,0.0,0.0,0.0,0.0,1.2060881887896218e-10,3.9592949626121264e-10,-2.3451564900401947e-11,0.0,0.0,0.0,0.0,0.0,0.0,0.0,0.0,0.0
1796.747,161,1796,747000000,base_footprint,-7.267778178937275e-06,0.0015896377393604746,0.0035295253203360567,0.9999925076969578,0.0,0.0,0.0,0.0,0.0,0.0,0.0,0.0,0.0,-4.581589803076736e-05,-0.0002119061390741949,1.1819826467017796e-05,0.0,0.0,0.0,0.0,0.0,0.0,0.0,0.0,0.0,1.1903674333913492e-10,3.907780929808127e-10,-2.0226174900748488e-11,0.0,0.0,0.0,0.0,0.0,0.0,0.0,0.0,0.0
1796.748,162,1796,748000000,base_footprint,-7.2677817170175376e-06,0.0015896377393478942,0.003529527549227232,0.9999925076890908,0.0,0.0,0.0,0.0,0.0,0.0,0.0,0.0,0.0,-4.581589635194452e-05,-0.00021190613956526675,1.1819828904224363e-05,0.0,0.0,0.0,0.0,0.0,0.0,0.0,0.0,0.0,1.2036201230452125e-10,3.949975492413895e-10,-2.0893537316691172e-11,0.0,0.0,0.0,0.0,0.0,0.0,0.0,0.0,0.0
1796.749,163,1796,749000000,base_footprint,-7.267785255109947e-06,0.0015896377393353207,0.0035295297781185874,0.9999925076812237,0.0,0.0,0.0,0.0,0.0,0.0,0.0,0.0,0.0,-4.581589469205786e-05,-0.0002119061400311819,1.1819831309093491e-05,0.0,0.0,0.0,0.0,0.0,0.0,0.0,0.0,0.0,1.1865735772609798e-10,3.8969500346402935e-10,-2.3764824639468804e-11,0.0,0.0,0.0,0.0,0.0,0.0,0.0,0.0,0.0
1796.75,164,1796,750000000,base_footprint,-7.2677887932008345e-06,0.0015896377393227392,0.0035295320070101435,0.9999925076733567,0.0,0.0,0.0,0.0,0.0,0.0,0.0,0.0,0.0,-4.581589300372176e-05,-0.00021190614052618066,1.1819833754246348e-05,0.0,0.0,0.0,0.0,0.0,0.0,0.0,0.0,0.0,1.2077487379293606e-10,3.9630751297851554e-10,-2.1682594385291357e-11,0.0,0.0,0.0,0.0,0.0,0.0,0.0,0.0,0.0
1796.751,165,1796,751000000,base_footprint,-7.267792331291564e-06,0.0015896377393101642,0.003529534235901882,0.9999925076654897,0.0,0.0,0.0,0.0,0.0,0.0,0.0,0.0,0.0,-4.581589131905571e-05,-0.0002119061409930736,1.1819836163259353e-05,0.0,0.0,0.0,0.0,0.0,0.0,0.0,0.0,0.0,1.1887964469000872e-10,3.904084070954189e-10,-2.26575233850058e-11,0.0,0.0,0.0,0.0,0.0,0.0,0.0,0.0,0.0
1796.752,166,1796,752000000,base_footprint,-7.2677958693692024e-06,0.0015896377392975855,0.0035295364647937996,0.9999925076576228,0.0,0.0,0.0,0.0,0.0,0.0,0.0,0.0,0.0,-4.5815889608365246e-05,-0.00021190614147964325,1.1819838564902834e-05,0.0,0.0,0.0,0.0,0.0,0.0,0.0,0.0,0.0,1.185291229094359e-10,3.8924898760261683e-10,-2.055639089401989e-11,0.0,0.0,0.0,0.0,0.0,0.0,0.0,0.0,0.0
1796.753,167,1796,753000000,base_footprint,-7.267799407452009e-06,0.0015896377392850092,0.0035295386936859056,0.9999925076497558,0.0,0.0,0.0,0.0,0.0,0.0,0.0,0.0,0.0,-4.581588793417057e-05,-0.00021190614195392232,1.1819840986774004e-05,0.0,0.0,0.0,0.0,0.0,0.0,0.0,0.0,0.0,1.1954190860566381e-10,3.924915514724987e-10,-2.4310957891233603e-11,0.0,0.0,0.0,0.0,0.0,0.0,0.0,0.0,0.0
1796.754,168,1796,754000000,base_footprint,-7.267802945533858e-06,0.0015896377392724274,0.0035295409225782034,0.9999925076418887,0.0,0.0,0.0,0.0,0.0,0.0,0.0,0.0,0.0,-4.5815886247395865e-05,-0.00021190614244388672,1.1819843414962777e-05,0.0,0.0,0.0,0.0,0.0,0.0,0.0,0.0,0.0,1.198961773271572e-10,3.935382336156527e-10,-2.1356201949713166e-11,0.0,0.0,0.0,0.0,0.0,0.0,0.0,0.0,0.0
1796.755,169,1796,755000000,base_footprint,-7.267806483623994e-06,0.0015896377392598546,0.0035295431514706906,0.9999925076340217,0.0,0.0,0.0,0.0,0.0,0.0,0.0,0.0,0.0,-4.581588457950985e-05,-0.00021190614290559598,1.1819845837909513e-05,0.0,0.0,0.0,0.0,0.0,0.0,0.0,0.0,0.0,1.195862474606745e-10,3.92655233519905e-10,-2.3827200871749404e-11,0.0,0.0,0.0,0.0,0.0,0.0,0.0,0.0,0.0
1796.756,170,1796,756000000,base_footprint,-7.267810021715159e-06,0.001589637739247279,0.003529545380363358,0.9999925076261547,0.0,0.0,0.0,0.0,0.0,0.0,0.0,0.0,0.0,-4.581588289709792e-05,-0.00021190614339046683,1.18198482418994e-05,0.0,0.0,0.0,0.0,0.0,0.0,0.0,0.0,0.0,1.186405159865577e-10,3.895870370067424e-10,-2.1780139799010063e-11,0.0,0.0,0.0,0.0,0.0,0.0,0.0,0.0,0.0
1796.757,171,1796,757000000,base_footprint,-7.267813559800242e-06,0.0015896377392347,0.003529547609256217,0.9999925076182876,0.0,0.0,0.0,0.0,0.0,0.0,0.0,0.0,0.0,-4.5815881200057796e-05,-0.0002119061438764309,1.1819850670164863e-05,0.0,0.0,0.0,0.0,0.0,0.0,0.0,0.0,0.0,1.1989589457303249e-10,3.93568188674409e-10,-2.1680827162646122e-11,0.0,0.0,0.0,0.0,0.0,0.0,0.0,0.0,0.0
1796.758,172,1796,758000000,base_footprint,-7.267817097882237e-06,0.0015896377392221207,0.003529549838149266,0.9999925076104206,0.0,0.0,0.0,0.0,0.0,0.0,0.0,0.0,0.0,-4.5815879509203735e-05,-0.0002119061443566632,1.1819853093435901e-05,0.0,0.0,0.0,0.0,0.0,0.0,0.0,0.0,0.0,1.196286844712423e-10,3.927428760222479e-10,-2.2811516813134478e-11,0.0,0.0,0.0,0.0,0.0,0.0,0.0,0.0,0.0
1796.759,173,1796,759000000,base_footprint,-7.267820635973624e-06,0.0015896377392095485,0.0035295520670424936,0.9999925076025535,0.0,0.0,0.0,0.0,0.0,0.0,0.0,0.0,0.0,-4.581587784380412e-05,-0.0002119061448215504,1.181985549519018e-05,0.0,0.0,0.0,0.0,0.0,0.0,0.0,0.0,0.0,1.1849158260954357e-10,3.891969414656465e-10,-2.510922409446976e-11,0.0,0.0,0.0,0.0,0.0,0.0,0.0,0.0,0.0
1796.76,174,1796,760000000,base_footprint,-7.267824174060476e-06,0.0015896377391969902,0.003529554295935903,0.9999925075946865,0.0,0.0,0.0,0.0,0.0,0.0,0.0,0.0,0.0,-4.581587615054749e-05,-0.0002119061452733491,1.1819857902558778e-05,0.0,0.0,0.0,0.0,0.0,0.0,0.0,0.0,0.0,1.1877851856499994e-10,3.901560389279515e-10,-2.3055641744690446e-11,0.0,0.0,0.0,0.0,0.0,0.0,0.0,0.0,0.0
1796.761,175,1796,761000000,base_footprint,-7.267827712146745e-06,0.001589637739184421,0.0035295565248295046,0.9999925075868195,0.0,0.0,0.0,0.0,0.0,0.0,0.0,0.0,0.0,-4.58158744644578e-05,-0.0002119061457742544,1.181986033253789e-05,0.0,0.0,0.0,0.0,0.0,0.0,0.0,0.0,0.0,1.2000113338441226e-10,3.9382987760529435e-10,-2.067642649469978e-11,0.0,0.0,0.0,0.0,0.0,0.0,0.0,0.0,0.0
1796.762,176,1796,762000000,base_footprint,-7.2678312502236605e-06,0.0015896377391718518,0.003529558753723289,0.9999925075789522,0.0,0.0,0.0,0.0,0.0,0.0,0.0,0.0,0.0,-4.5815872761164785e-05,-0.00021190614625254332,1.1819862742940817e-05,0.0,0.0,0.0,0.0,0.0,0.0,0.0,0.0,0.0,1.1897004444244764e-10,3.9066400060506055e-10,-2.1222814391480603e-11,0.0,0.0,0.0,0.0,0.0,0.0,0.0,0.0,0.0
1796.763,177,1796,763000000,base_footprint,-7.2678347883241465e-06,0.001589637739159282,0.0035295609826172694,0.9999925075710852,0.0,0.0,0.0,0.0,0.0,0.0,0.0,0.0,0.0,-4.581587112364768e-05,-0.00021190614673478953,1.181986517820541e-05,0.0,0.0,0.0,0.0,0.0,0.0,0.0,0.0,0.0,1.2024721763403336e-10,3.946175554049451e-10,-2.0611200903228976e-11,0.0,0.0,0.0,0.0,0.0,0.0,0.0,0.0,0.0
1796.764,178,1796,764000000,base_footprint,-7.267838326413085e-06,0.0015896377391467012,0.003529563211511427,0.9999925075632181,0.0,0.0,0.0,0.0,0.0,0.0,0.0,0.0,0.0,-4.58158694159004e-05,-0.00021190614723585262,1.1819867576701611e-05,0.0,0.0,0.0,0.0,0.0,0.0,0.0,0.0,0.0,1.183846466891267e-10,3.887292482397507e-10,-1.966326976297467e-11,0.0,0.0,0.0,0.0,0.0,0.0,0.0,0.0,0.0
1796.765,179,1796,765000000,base_footprint,-7.267841864508036e-06,0.0015896377391341132,0.003529565440405765,0.9999925075553511,0.0,0.0,0.0,0.0,0.0,0.0,0.0,0.0,0.0,-4.581586774342613e-05,-0.00021190614772973438,1.1819869981752825e-05,0.0,0.0,0.0,0.0,0.0,0.0,0.0,0.0,0.0,1.1869506420733402e-10,3.897458691692474e-10,-2.4015845112707543e-11,0.0,0.0,0.0,0.0,0.0,0.0,0.0,0.0,0.0
1796.766,180,1796,766000000,base_footprint,-7.267845402595762e-06,0.0015896377391215282,0.0035295676693002974,0.999992507547484,0.0,0.0,0.0,0.0,0.0,0.0,0.0,0.0,0.0,-4.581586604409923e-05,-0.00021190614820269403,1.1819872414511275e-05,0.0,0.0,0.0,0.0,0.0,0.0,0.0,0.0,0.0,1.2011530540123545e-10,3.943040254044545e-10,-2.1573515980345465e-11,0.0,0.0,0.0,0.0,0.0,0.0,0.0,0.0,0.0
1796.767,181,1796,767000000,base_footprint,-7.267848940684258e-06,0.0015896377391089534,0.003529569898195011,0.9999925075396169,0.0,0.0,0.0,0.0,0.0,0.0,0.0,0.0,0.0,-4.58158643614503e-05,-0.00021190614866156726,1.18198748218793e-05,0.0,0.0,0.0,0.0,0.0,0.0,0.0,0.0,0.0,1.1878614092415754e-10,3.9013741028494614e-10,-2.2678198642509148e-11,0.0,0.0,0.0,0.0,0.0,0.0,0.0,0.0,0.0
1796.769,182,1796,768000000,base_footprint,-7.267852478773055e-06,0.0015896377390963797,0.0035295721270899075,0.9999925075317497,0.0,0.0,0.0,0.0,0.0,0.0,0.0,0.0,0.0,-4.581586267768553e-05,-0.00021190614913871116,1.1819877230844388e-05,0.0,0.0,0.0,0.0,0.0,0.0,0.0,0.0,0.0,1.188823359432574e-10,3.904004164286147e-10,-2.4009626863080646e-11,0.0,0.0,0.0,0.0,0.0,0.0,0.0,0.0,0.0
1796.769,183,1796,769000000,base_footprint,-7.267856016868139e-06,0.0015896377390838055,0.0035295743559849964,0.9999925075238826,0.0,0.0,0.0,0.0,0.0,0.0,0.0,0.0,0.0,-4.58158610054651e-05,-0.00021190614961925903,1.181987966045052e-05,0.0,0.0,0.0,0.0,0.0,0.0,0.0,0.0,0.0,1.199496646332531e-10,3.9374836507635344e-10,-2.3575493057773926e-11,0.0,0.0,0.0,0.0,0.0,0.0,0.0,0.0,0.0
1796.77,184,1796,770000000,base_footprint,-7.267859554949329e-06,0.0015896377390712327,0.0035295765848802796,0.9999925075160154,0.0,0.0,0.0,0.0,0.0,0.0,0.0,0.0,0.0,-4.581585929277355e-05,-0.00021190615009541606,1.1819882093371475e-05,0.0,0.0,0.0,0.0,0.0,0.0,0.0,0.0,0.0,1.2013455912955805e-10,3.943490725581169e-10,-2.0124236690555934e-11,0.0,0.0,0.0,0.0,0.0,0.0,0.0,0.0,0.0
1796.771,185,1796,771000000,base_footprint,-7.267863093030485e-06,0.0015896377390586596,0.0035295788137757475,0.9999925075081483,0.0,0.0,0.0,0.0,0.0,0.0,0.0,0.0,0.0,-4.58158576082109e-05,-0.00021190615057539884,1.1819884507176052e-05,0.0,0.0,0.0,0.0,0.0,0.0,0.0,0.0,0.0,1.1914013157991572e-10,3.9119002766814983e-10,-2.2460673282863826e-11,0.0,0.0,0.0,0.0,0.0,0.0,0.0,0.0,0.0
1796.773,186,1796,772000000,base_footprint,-7.2678666311263876e-06,0.001589637739046087,0.0035295810426714093,0.9999925075002813,0.0,0.0,0.0,0.0,0.0,0.0,0.0,0.0,0.0,-4.5815855953000435e-05,-0.00021190615105498418,1.1819886937121181e-05,0.0,0.0,0.0,0.0,0.0,0.0,0.0,0.0,0.0,1.19962195754727e-10,3.9377719484562196e-10,-2.4031829222871062e-11,0.0,0.0,0.0,0.0,0.0,0.0,0.0,0.0,0.0
1796.774,187,1796,773000000,base_footprint,-7.2678701692235735e-06,0.0015896377390335146,0.0035295832715672463,0.9999925074924141,0.0,0.0,0.0,0.0,0.0,0.0,0.0,0.0,0.0,-4.581585427126048e-05,-0.00021190615153247083,1.181988933417465e-05,0.0,0.0,0.0,0.0,0.0,0.0,0.0,0.0,0.0,1.1827841128593064e-10,3.884547956476981e-10,-2.0809081564737927e-11,0.0,0.0,0.0,0.0,0.0,0.0,0.0,0.0,0.0
1796.774,188,1796,774000000,base_footprint,-7.267873707318965e-06,0.001589637739020936,0.0035295855004632863,0.999992507484547,0.0,0.0,0.0,0.0,0.0,0.0,0.0,0.0,0.0,-4.581585258244312e-05,-0.00021190615202511484,1.1819891783257249e-05,0.0,0.0,0.0,0.0,0.0,0.0,0.0,0.0,0.0,1.20979332480792e-10,3.9694942070981285e-10,-2.0290271080489223e-11,0.0,0.0,0.0,0.0,0.0,0.0,0.0,0.0,0.0
1796.775,189,1796,775000000,base_footprint,-7.267877245421943e-06,0.0015896377390083617,0.0035295877293595066,0.9999925074766799,0.0,0.0,0.0,0.0,0.0,0.0,0.0,0.0,0.0,-4.5815850913402085e-05,-0.00021190615249583073,1.181989418926196e-05,0.0,0.0,0.0,0.0,0.0,0.0,0.0,0.0,0.0,1.187233802783478e-10,3.898933870207705e-10,-2.3473123653159726e-11,0.0,0.0,0.0,0.0,0.0,0.0,0.0,0.0,0.0
1796.776,190,1796,776000000,base_footprint,-7.267880783516362e-06,0.0015896377389957876,0.0035295899582559126,0.9999925074688127,0.0,0.0,0.0,0.0,0.0,0.0,0.0,0.0,0.0,-4.5815849211625005e-05,-0.0002119061529743926,1.1819896604453756e-05,0.0,0.0,0.0,0.0,0.0,0.0,0.0,0.0,0.0,1.1921230671110685e-10,3.9144387566940133e-10,-2.2488082263588003e-11,0.0,0.0,0.0,0.0,0.0,0.0,0.0,0.0,0.0
1796.777,191,1796,777000000,base_footprint,-7.267884321599634e-06,0.0015896377389832054,0.0035295921871525025,0.9999925074609456,0.0,0.0,0.0,0.0,0.0,0.0,0.0,0.0,0.0,-4.5815847504635706e-05,-0.00021190615346956704,1.1819899015693687e-05,0.0,0.0,0.0,0.0,0.0,0.0,0.0,0.0,0.0,1.190359296993688e-10,3.908073622569821e-10,-1.939482313481938e-11,0.0,0.0,0.0,0.0,0.0,0.0,0.0,0.0,0.0
1796.778,192,1796,778000000,base_footprint,-7.2678878596857126e-06,0.0015896377389706222,0.003529594416049291,0.9999925074530784,0.0,0.0,0.0,0.0,0.0,0.0,0.0,0.0,0.0,-4.581584582527156e-05,-0.0002119061539509149,1.181990145722985e-05,0.0,0.0,0.0,0.0,0.0,0.0,0.0,0.0,0.0,1.2056302393431592e-10,3.957045455095214e-10,-2.4752293473559522e-11,0.0,0.0,0.0,0.0,0.0,0.0,0.0,0.0,0.0
1796.779,193,1796,779000000,base_footprint,-7.26789139778417e-06,0.0015896377389580398,0.0035295966449462577,0.9999925074452113,0.0,0.0,0.0,0.0,0.0,0.0,0.0,0.0,0.0,-4.581584416580258e-05,-0.0002119061544291935,1.1819903858327573e-05,0.0,0.0,0.0,0.0,0.0,0.0,0.0,0.0,0.0,1.184815640103491e-10,3.8907914299480354e-10,-2.177093428706156e-11,0.0,0.0,0.0,0.0,0.0,0.0,0.0,0.0,0.0
1796.78,194,1796,780000000,base_footprint,-7.26789493587784e-06,0.0015896377389454574,0.0035295988738434066,0.9999925074373439,0.0,0.0,0.0,0.0,0.0,0.0,0.0,0.0,0.0,-4.5815842471621844e-05,-0.00021190615490750573,1.1819906268729576e-05,0.0,0.0,0.0,0.0,0.0,0.0,0.0,0.0,0.0,1.189648519695355e-10,3.90651555289173e-10,-2.2111407477647163e-11,0.0,0.0,0.0,0.0,0.0,0.0,0.0,0.0,0.0
1796.781,195,1796,781000000,base_footprint,-7.267898473977251e-06,0.001589637738932886,0.0035296011027407476,0.9999925074294768,0.0,0.0,0.0,0.0,0.0,0.0,0.0,0.0,0.0,-4.5815840798670204e-05,-0.00021190615536560833,1.1819908695674425e-05,0.0,0.0,0.0,0.0,0.0,0.0,0.0,0.0,0.0,1.197881206060661e-10,3.9331567292390685e-10,-2.4136316907964496e-11,0.0,0.0,0.0,0.0,0.0,0.0,0.0,0.0,0.0
1796.781,196,1796,782000000,base_footprint,-7.2679020120633034e-06,0.0015896377389203193,0.003529603331638286,0.9999925074216096,0.0,0.0,0.0,0.0,0.0,0.0,0.0,0.0,0.0,-4.581583908701178e-05,-0.000211906155835536,1.181991113437175e-05,0.0,0.0,0.0,0.0,0.0,0.0,0.0,0.0,0.0,1.204242669224697e-10,3.9529008676614626e-10,-2.0541036660537295e-11,0.0,0.0,0.0,0.0,0.0,0.0,0.0,0.0,0.0
1796.782,197,1796,783000000,base_footprint,-7.267905550163249e-06,0.0015896377389077448,0.0035296055605360133,0.9999925074137425,0.0,0.0,0.0,0.0,0.0,0.0,0.0,0.0,0.0,-4.5815837430179943e-05,-0.00021190615633089564,1.1819913556993014e-05,0.0,0.0,0.0,0.0,0.0,0.0,0.0,0.0,0.0,1.1960058947186777e-10,3.9258451835228877e-10,-2.4163579573616963e-11,0.0,0.0,0.0,0.0,0.0,0.0,0.0,0.0,0.0
1796.784,198,1796,784000000,base_footprint,-7.267909088253454e-06,0.001589637738895179,0.003529607789433924,0.9999925074058753,0.0,0.0,0.0,0.0,0.0,0.0,0.0,0.0,0.0,-4.5815835726159596e-05,-0.00021190615679222177,1.181991596733924e-05,0.0,0.0,0.0,0.0,0.0,0.0,0.0,0.0,0.0,1.1894439217023993e-10,3.906566618391406e-10,-2.290258377191466e-11,0.0,0.0,0.0,0.0,0.0,0.0,0.0,0.0,0.0
1796.785,199,1796,785000000,base_footprint,-7.267912626343884e-06,0.00158963773888261,0.0035296100183320185,0.9999925073980082,0.0,0.0,0.0,0.0,0.0,0.0,0.0,0.0,0.0,-4.581583404212463e-05,-0.0002119061572786733,1.1819918379036616e-05,0.0,0.0,0.0,0.0,0.0,0.0,0.0,0.0,0.0,1.1904489539407083e-10,3.9084727841275087e-10,-1.9993714807653633e-11,0.0,0.0,0.0,0.0,0.0,0.0,0.0,0.0,0.0
1796.786,200,1796,786000000,base_footprint,-7.267916164452339e-06,0.0015896377388700234,0.0035296122472303084,0.9999925073901408,0.0,0.0,0.0,0.0,0.0,0.0,0.0,0.0,0.0,-4.581583239305026e-05,-0.00021190615779202653,1.1819920816367793e-05,0.0,0.0,0.0,0.0,0.0,0.0,0.0,0.0,0.0,1.20383919156379e-10,3.9497204992260796e-10,-2.152799674473541e-11,0.0,0.0,0.0,0.0,0.0,0.0,0.0,0.0,0.0
1796.787,201,1796,787000000,base_footprint,-7.267919702554274e-06,0.0015896377388574462,0.0035296144761287752,0.9999925073822735,0.0,0.0,0.0,0.0,0.0,0.0,0.0,0.0,0.0,-4.581583069576651e-05,-0.00021190615825355846,1.1819923212161206e-05,0.0,0.0,0.0,0.0,0.0,0.0,0.0,0.0,0.0,1.1819673958346185e-10,3.88272294633853e-10,-2.191098213013299e-11,0.0,0.0,0.0,0.0,0.0,0.0,0.0,0.0,0.0
1796.788,202,1796,788000000,base_footprint,-7.2679232406458515e-06,0.001589637738844872,0.0035296167050274307,0.9999925073744065,0.0,0.0,0.0,0.0,0.0,0.0,0.0,0.0,0.0,-4.581582899039052e-05,-0.00021190615872734086,1.1819925631907018e-05,0.0,0.0,0.0,0.0,0.0,0.0,0.0,0.0,0.0,1.194428104276435e-10,3.9219329060607786e-10,-2.2304017707312192e-11,0.0,0.0,0.0,0.0,0.0,0.0,0.0,0.0,0.0
1796.789,203,1796,789000000,base_footprint,-7.267926778732511e-06,0.0015896377388322932,0.003529618933926269,0.9999925073665392,0.0,0.0,0.0,0.0,0.0,0.0,0.0,0.0,0.0,-4.581582729602104e-05,-0.00021190615921521007,1.1819928043878643e-05,0.0,0.0,0.0,0.0,0.0,0.0,0.0,0.0,0.0,1.1906261905764957e-10,3.909065753199753e-10,-2.0015782119783873e-11,0.0,0.0,0.0,0.0,0.0,0.0,0.0,0.0,0.0
1796.79,204,1796,790000000,base_footprint,-7.2679303168297075e-06,0.001589637738819708,0.0035296211628252946,0.999992507358672,0.0,0.0,0.0,0.0,0.0,0.0,0.0,0.0,0.0,-4.581582563240953e-05,-0.0002119061597074755,1.1819930462542606e-05,0.0,0.0,0.0,0.0,0.0,0.0,0.0,0.0,0.0,1.1939198839314137e-10,3.919512225392823e-10,-2.4704881965030846e-11,0.0,0.0,0.0,0.0,0.0,0.0,0.0,0.0,0.0
1796.791,205,1796,791000000,base_footprint,-7.267933854932946e-06,0.0015896377388071256,0.003529623391724508,0.9999925073508047,0.0,0.0,0.0,0.0,0.0,0.0,0.0,0.0,0.0,-4.5815823959901476e-05,-0.00021190616018115717,1.1819932882620922e-05,0.0,0.0,0.0,0.0,0.0,0.0,0.0,0.0,0.0,1.194555780597685e-10,3.921945915703488e-10,-2.235931905727993e-11,0.0,0.0,0.0,0.0,0.0,0.0,0.0,0.0,0.0
1796.792,206,1796,792000000,base_footprint,-7.267937393025683e-06,0.0015896377387945525,0.0035296256206239092,0.9999925073429374,0.0,0.0,0.0,0.0,0.0,0.0,0.0,0.0,0.0,-4.581582225429134e-05,-0.00021190616064140506,1.1819935303075496e-05,0.0,0.0,0.0,0.0,0.0,0.0,0.0,0.0,0.0,1.1946436985552124e-10,3.9230725761090124e-10,-2.3035434702501284e-11,0.0,0.0,0.0,0.0,0.0,0.0,0.0,0.0,0.0
1796.793,207,1796,793000000,base_footprint,-7.267940931130523e-06,0.0015896377387819819,0.003529627849523492,0.9999925073350702,0.0,0.0,0.0,0.0,0.0,0.0,0.0,0.0,0.0,-4.581582059432719e-05,-0.00021190616111628886,1.1819937709487639e-05,0.0,0.0,0.0,0.0,0.0,0.0,0.0,0.0,0.0,1.1874211550396106e-10,3.8994754208658846e-10,-2.4771089696137762e-11,0.0,0.0,0.0,0.0,0.0,0.0,0.0,0.0,0.0
1796.794,208,1796,794000000,base_footprint,-7.267944469228795e-06,0.0015896377387694136,0.003529630078423269,0.999992507327203,0.0,0.0,0.0,0.0,0.0,0.0,0.0,0.0,0.0,-4.581581889626913e-05,-0.00021190616159136227,1.1819940141806686e-05,0.0,0.0,0.0,0.0,0.0,0.0,0.0,0.0,0.0,1.2009080205975814e-10,3.942302993202312e-10,-2.272884932048335e-11,0.0,0.0,0.0,0.0,0.0,0.0,0.0,0.0,0.0
1796.795,209,1796,795000000,base_footprint,-7.267948007329203e-06,0.0015896377387568425,0.0035296323073232302,0.9999925073193356,0.0,0.0,0.0,0.0,0.0,0.0,0.0,0.0,0.0,-4.581581721606422e-05,-0.0002119061620754209,1.1819942555767655e-05,0.0,0.0,0.0,0.0,0.0,0.0,0.0,0.0,0.0,1.19161293308309e-10,3.912085496897712e-10,-1.942220179122542e-11,0.0,0.0,0.0,0.0,0.0,0.0,0.0,0.0,0.0
1796.796,210,1796,796000000,base_footprint,-7.267951545416239e-06,0.0015896377387442653,0.0035296345362233836,0.9999925073114684,0.0,0.0,0.0,0.0,0.0,0.0,0.0,0.0,0.0,-4.5815815504287405e-05,-0.00021190616256684997,1.181994498325704e-05,0.0,0.0,0.0,0.0,0.0,0.0,0.0,0.0,0.0,1.1986351009063486e-10,3.934633269808153e-10,-2.1817772344781276e-11,0.0,0.0,0.0,0.0,0.0,0.0,0.0,0.0,0.0
1796.797,211,1796,797000000,base_footprint,-7.2679550835163804e-06,0.001589637738731679,0.0035296367651237288,0.9999925073036011,0.0,0.0,0.0,0.0,0.0,0.0,0.0,0.0,0.0,-4.5815813845709494e-05,-0.00021190616306486558,1.1819947411329164e-05,0.0,0.0,0.0,0.0,0.0,0.0,0.0,0.0,0.0,1.198951756653144e-10,3.934765560748706e-10,-2.0739351024582568e-11,0.0,0.0,0.0,0.0,0.0,0.0,0.0,0.0,0.0
1796.798,212,1796,798000000,base_footprint,-7.267958621620448e-06,0.0015896377387191033,0.003529638994024256,0.9999925072957339,0.0,0.0,0.0,0.0,0.0,0.0,0.0,0.0,0.0,-4.581581216924344e-05,-0.00021190616352277284,1.1819949819978785e-05,0.0,0.0,0.0,0.0,0.0,0.0,0.0,0.0,0.0,1.1884339201693706e-10,3.9033759468273483e-10,-2.4679555480849235e-11,0.0,0.0,0.0,0.0,0.0,0.0,0.0,0.0,0.0
1796.799,213,1796,799000000,base_footprint,-7.267962159720593e-06,0.0015896377387065264,0.003529641222924978,0.9999925072878666,0.0,0.0,0.0,0.0,0.0,0.0,0.0,0.0,0.0,-4.581581047651756e-05,-0.000211906164005049,1.181995225391612e-05,0.0,0.0,0.0,0.0,0.0,0.0,0.0,0.0,0.0,1.2019436479082107e-10,3.9448609597370085e-10,-1.8404233432161923e-11,0.0,0.0,0.0,0.0,0.0,0.0,0.0,0.0,0.0
1796.8,214,1796,800000000,base_footprint,-7.267965697825514e-06,0.0015896377386939446,0.0035296434518258812,0.9999925072799993,0.0,0.0,0.0,0.0,0.0,0.0,0.0,0.0,0.0,-4.5815808801580486e-05,-0.00021190616449374397,1.1819954660046751e-05,0.0,0.0,0.0,0.0,0.0,0.0,0.0,0.0,0.0,1.1874151380464587e-10,3.8992376668783273e-10,-2.5614085764073287e-11,0.0,0.0,0.0,0.0,0.0,0.0,0.0,0.0,0.0
1796.801,215,1796,801000000,base_footprint,-7.2679692359196415e-06,0.0015896377386813662,0.003529645680726964,0.9999925072721321,0.0,0.0,0.0,0.0,0.0,0.0,0.0,0.0,0.0,-4.581580709554565e-05,-0.00021190616496647886,1.1819957063226086e-05,0.0,0.0,0.0,0.0,0.0,0.0,0.0,0.0,0.0,1.1859624323250617e-10,3.8949228679100144e-10,-1.968382366043044e-11,0.0,0.0,0.0,0.0,0.0,0.0,0.0,0.0,0.0
1796.802,216,1796,802000000,base_footprint,-7.267972774025241e-06,0.0015896377386687914,0.00352964790962824,0.9999925072642648,0.0,0.0,0.0,0.0,0.0,0.0,0.0,0.0,0.0,-4.5815805433902286e-05,-0.0002119061654387281,1.181995949359058e-05,0.0,0.0,0.0,0.0,0.0,0.0,0.0,0.0,0.0,1.1998060640766465e-10,3.9385668568005283e-10,-2.2802608556490654e-11,0.0,0.0,0.0,0.0,0.0,0.0,0.0,0.0,0.0
1796.803,217,1796,803000000,base_footprint,-7.267976312128495e-06,0.0015896377386562216,0.0035296501385297004,0.9999925072563973,0.0,0.0,0.0,0.0,0.0,0.0,0.0,0.0,0.0,-4.581580374466835e-05,-0.00021190616590711616,1.1819961909072207e-05,0.0,0.0,0.0,0.0,0.0,0.0,0.0,0.0,0.0,1.1920879216847603e-10,3.9147060973806113e-10,-2.4585288665481598e-11,0.0,0.0,0.0,0.0,0.0,0.0,0.0,0.0,0.0
1796.804,218,1796,804000000,base_footprint,-7.267979850222435e-06,0.0015896377386436472,0.003529652367431354,0.9999925072485301,0.0,0.0,0.0,0.0,0.0,0.0,0.0,0.0,0.0,-4.581580204116239e-05,-0.00021190616639625126,1.181996433777537e-05,0.0,0.0,0.0,0.0,0.0,0.0,0.0,0.0,0.0,1.1991748299346133e-10,3.936481918170251e-10,-2.3425821914256566e-11,0.0,0.0,0.0,0.0,0.0,0.0,0.0,0.0,0.0
1796.805,219,1796,805000000,base_footprint,-7.2679833883142535e-06,0.001589637738631075,0.003529654596333192,0.9999925072406628,0.0,0.0,0.0,0.0,0.0,0.0,0.0,0.0,0.0,-4.581580035243243e-05,-0.00021190616687106605,1.181996675171055e-05,0.0,0.0,0.0,0.0,0.0,0.0,0.0,0.0,0.0,1.1914666587587134e-10,3.9121834691535686e-10,-2.0962198025612517e-11,0.0,0.0,0.0,0.0,0.0,0.0,0.0,0.0,0.0
1796.806,220,1796,806000000,base_footprint,-7.26798692641823e-06,0.001589637738618495,0.0035296568252352165,0.9999925072327954,0.0,0.0,0.0,0.0,0.0,0.0,0.0,0.0,0.0,-4.581579869208176e-05,-0.00021190616736652265,1.181996916765231e-05,0.0,0.0,0.0,0.0,0.0,0.0,0.0,0.0,0.0,1.192676887361052e-10,3.9150201935771147e-10,-2.0527267170853866e-11,0.0,0.0,0.0,0.0,0.0,0.0,0.0,0.0,0.0
1796.807,221,1796,807000000,base_footprint,-7.267990464526699e-06,0.001589637738605922,0.003529659054137432,0.9999925072249283,0.0,0.0,0.0,0.0,0.0,0.0,0.0,0.0,0.0,-4.581579701639666e-05,-0.00021190616783249499,1.181997159319484e-05,0.0,0.0,0.0,0.0,0.0,0.0,0.0,0.0,0.0,1.1972222608358038e-10,3.930913287575384e-10,-2.4670541614113785e-11,0.0,0.0,0.0,0.0,0.0,0.0,0.0,0.0,0.0
1796.808,222,1796,808000000,base_footprint,-7.26799400263866e-06,0.0015896377385933441,0.0035296612830398233,0.9999925072170609,0.0,0.0,0.0,0.0,0.0,0.0,0.0,0.0,0.0,-4.581579533907161e-05,-0.0002119061683209971,1.1819973990665115e-05,0.0,0.0,0.0,0.0,0.0,0.0,0.0,0.0,0.0,1.1831104965877608e-10,3.885159785558638e-10,-2.0508895459086268e-11,0.0,0.0,0.0,0.0,0.0,0.0,0.0,0.0,0.0
1796.808,223,1796,809000000,base_footprint,-7.267997540742139e-06,0.0015896377385807607,0.0035296635119423997,0.9999925072091935,0.0,0.0,0.0,0.0,0.0,0.0,0.0,0.0,0.0,-4.5815793637322426e-05,-0.0002119061688112527,1.1819976404657906e-05,0.0,0.0,0.0,0.0,0.0,0.0,0.0,0.0,0.0,1.1916683826143264e-10,3.9124921707189236e-10,-2.084613755941222e-11,0.0,0.0,0.0,0.0,0.0,0.0,0.0,0.0,0.0
1796.81,224,1796,810000000,base_footprint,-7.268001078850662e-06,0.0015896377385681882,0.0035296657408451734,0.9999925072013262,0.0,0.0,0.0,0.0,0.0,0.0,0.0,0.0,0.0,-4.581579196275684e-05,-0.00021190616926841882,1.1819978843997286e-05,0.0,0.0,0.0,0.0,0.0,0.0,0.0,0.0,0.0,1.2042702808413314e-10,3.953386291499316e-10,-2.4020790976117767e-11,0.0,0.0,0.0,0.0,0.0,0.0,0.0,0.0,0.0
1796.811,225,1796,811000000,base_footprint,-7.268004616952272e-06,0.0015896377385556093,0.0035296679697481258,0.9999925071934588,0.0,0.0,0.0,0.0,0.0,0.0,0.0,0.0,0.0,-4.5815790264478776e-05,-0.0002119061697610244,1.1819981245174356e-05,0.0,0.0,0.0,0.0,0.0,0.0,0.0,0.0,0.0,1.1851025213322835e-10,3.891508943891707e-10,-2.0562766180500266e-11,0.0,0.0,0.0,0.0,0.0,0.0,0.0,0.0,0.0
1796.812,226,1796,812000000,base_footprint,-7.268008155050377e-06,0.0015896377385430282,0.003529670198651276,0.9999925071855914,0.0,0.0,0.0,0.0,0.0,0.0,0.0,0.0,0.0,-4.581578857244531e-05,-0.00021190617024444125,1.1819983685316372e-05,0.0,0.0,0.0,0.0,0.0,0.0,0.0,0.0,0.0,1.2050396748059754e-10,3.9549744737351347e-10,-2.1843320523982987e-11,0.0,0.0,0.0,0.0,0.0,0.0,0.0,0.0,0.0
1796.812,227,1796,813000000,base_footprint,-7.2680116931503616e-06,0.0015896377385304513,0.0035296724275546117,0.999992507177724,0.0,0.0,0.0,0.0,0.0,0.0,0.0,0.0,0.0,-4.581578689173272e-05,-0.00021190617071549007,1.1819986100035227e-05,0.0,0.0,0.0,0.0,0.0,0.0,0.0,0.0,0.0,1.1917608325290842e-10,3.913323897352876e-10,-2.3020757622072907e-11,0.0,0.0,0.0,0.0,0.0,0.0,0.0,0.0,0.0
1796.812,228,1796,814000000,base_footprint,-7.268015231265455e-06,0.0015896377385178847,0.0035296746564581313,0.9999925071698567,0.0,0.0,0.0,0.0,0.0,0.0,0.0,0.0,0.0,-4.581578523774766e-05,-0.00021190617117438688,1.181998851237814e-05,0.0,0.0,0.0,0.0,0.0,0.0,0.0,0.0,0.0,1.1903351041513615e-10,3.909059585886381e-10,-2.385496386355856e-11,0.0,0.0,0.0,0.0,0.0,0.0,0.0,0.0,0.0
1796.817,229,1796,815000000,base_footprint,-7.268018769372722e-06,0.0015896377385053128,0.0035296768853618323,0.9999925071619893,0.0,0.0,0.0,0.0,0.0,0.0,0.0,0.0,0.0,-4.5815783537441906e-05,-0.00021190617166453118,1.1819990918906654e-05,0.0,0.0,0.0,0.0,0.0,0.0,0.0,0.0,0.0,1.1877341159442755e-10,3.9002898675350283e-10,-2.3531135686449074e-11,0.0,0.0,0.0,0.0,0.0,0.0,0.0,0.0,0.0
1796.817,231,1796,817000000,base_footprint,-7.268025845570209e-06,0.0015896377384801736,0.0035296813431698044,0.9999925071462545,0.0,0.0,0.0,0.0,0.0,0.0,0.0,0.0,0.0,-4.5815780153282004e-05,-0.000211906172610034,1.1819995767027558e-05,0.0,0.0,0.0,0.0,0.0,0.0,0.0,0.0,0.0,1.1959669427625694e-10,3.926885519049514e-10,-2.3039782050534485e-11,0.0,0.0,0.0,0.0,0.0,0.0,0.0,0.0,0.0
1796.818,232,1796,818000000,base_footprint,-7.2680293836615235e-06,0.001589637738467599,0.0035296835720740713,0.9999925071383872,0.0,0.0,0.0,0.0,0.0,0.0,0.0,0.0,0.0,-4.58157784514136e-05,-0.00021190617310744313,1.1819998183450562e-05,0.0,0.0,0.0,0.0,0.0,0.0,0.0,0.0,0.0,1.1930567711034892e-10,3.916434478023207e-10,-1.9181103906597663e-11,0.0,0.0,0.0,0.0,0.0,0.0,0.0,0.0,0.0
1796.819,233,1796,819000000,base_footprint,-7.268032921772083e-06,0.0015896377384550192,0.003529685800978523,0.9999925071305198,0.0,0.0,0.0,0.0,0.0,0.0,0.0,0.0,0.0,-4.58157768054098e-05,-0.00021190617359759603,1.18200005976594e-05,0.0,0.0,0.0,0.0,0.0,0.0,0.0,0.0,0.0,1.1916880216345436e-10,3.9119779027520737e-10,-2.1054893164531676e-11,0.0,0.0,0.0,0.0,0.0,0.0,0.0,0.0,0.0
1796.82,234,1796,820000000,base_footprint,-7.268036459886407e-06,0.0015896377384424345,0.0035296880298831667,0.9999925071226524,0.0,0.0,0.0,0.0,0.0,0.0,0.0,0.0,0.0,-4.581577512800811e-05,-0.0002119061740869746,1.1820003026192539e-05,0.0,0.0,0.0,0.0,0.0,0.0,0.0,0.0,0.0,1.1991587302360324e-10,3.9358089944588895e-10,-1.9846032536177105e-11,0.0,0.0,0.0,0.0,0.0,0.0,0.0,0.0,0.0
1796.822,235,1796,821000000,base_footprint,-7.2680399979949095e-06,0.0015896377384298486,0.0035296902587880065,0.999992507114785,0.0,0.0,0.0,0.0,0.0,0.0,0.0,0.0,0.0,-4.581577343136052e-05,-0.00021190617456805032,1.1820005462865849e-05,0.0,0.0,0.0,0.0,0.0,0.0,0.0,0.0,0.0,1.2031924333863134e-10,3.9493674302267413e-10,-2.348515114432804e-11,0.0,0.0,0.0,0.0,0.0,0.0,0.0,0.0,0.0
1796.822,236,1796,822000000,base_footprint,-7.268043536102786e-06,0.0015896377384172623,0.003529692487693024,0.9999925071069177,0.0,0.0,0.0,0.0,0.0,0.0,0.0,0.0,0.0,-4.581577174583325e-05,-0.00021190617504839935,1.1820007862670337e-05,0.0,0.0,0.0,0.0,0.0,0.0,0.0,0.0,0.0,1.1841320417723784e-10,3.8890882848633673e-10,-2.409151349549462e-11,0.0,0.0,0.0,0.0,0.0,0.0,0.0,0.0,0.0
1796.823,237,1796,823000000,base_footprint,-7.268047074213246e-06,0.001589637738404693,0.003529694716598223,0.9999925070990501,0.0,0.0,0.0,0.0,0.0,0.0,0.0,0.0,0.0,-4.581577006681765e-05,-0.0002119061754928673,1.1820010271037654e-05,0.0,0.0,0.0,0.0,0.0,0.0,0.0,0.0,0.0,1.1880779639956708e-10,3.902975396752273e-10,-2.6829086374032867e-11,0.0,0.0,0.0,0.0,0.0,0.0,0.0,0.0,0.0
1796.824,238,1796,824000000,base_footprint,-7.268050612318605e-06,0.0015896377383921242,0.0035296969455036052,0.9999925070911827,0.0,0.0,0.0,0.0,0.0,0.0,0.0,0.0,0.0,-4.5815768372150534e-05,-0.00021190617597207162,1.1820012680228734e-05,0.0,0.0,0.0,0.0,0.0,0.0,0.0,0.0,0.0,1.1891019225339516e-10,3.904546803880024e-10,-1.9927926043824463e-11,0.0,0.0,0.0,0.0,0.0,0.0,0.0,0.0,0.0
1796.825,239,1796,825000000,base_footprint,-7.268054150423496e-06,0.0015896377383795518,0.0035296991744091827,0.9999925070833153,0.0,0.0,0.0,0.0,0.0,0.0,0.0,0.0,0.0,-4.5815766686242265e-05,-0.00021190617645841156,1.1820015115017648e-05,0.0,0.0,0.0,0.0,0.0,0.0,0.0,0.0,0.0,1.2022898806157715e-10,3.9461408140997353e-10,-2.2267941245752457e-11,0.0,0.0,0.0,0.0,0.0,0.0,0.0,0.0,0.0
1796.826,240,1796,826000000,base_footprint,-7.268057688522668e-06,0.0015896377383669803,0.003529701403314958,0.9999925070754478,0.0,0.0,0.0,0.0,0.0,0.0,0.0,0.0,0.0,-4.5815764989843316e-05,-0.00021190617693587796,1.1820017554630872e-05,0.0,0.0,0.0,0.0,0.0,0.0,0.0,0.0,0.0,1.2047521119749342e-10,3.9541504234253186e-10,-2.1060605316107578e-11,0.0,0.0,0.0,0.0,0.0,0.0,0.0,0.0,0.0
1796.826,241,1796,827000000,base_footprint,-7.268061226621913e-06,0.0015896377383544085,0.003529703632220911,0.9999925070675804,0.0,0.0,0.0,0.0,0.0,0.0,0.0,0.0,0.0,-4.5815763305689835e-05,-0.00021190617741589324,1.1820019954054292e-05,0.0,0.0,0.0,0.0,0.0,0.0,0.0,0.0,0.0,1.18395998176358e-10,3.8884428577165636e-10,-2.3191503820953375e-11,0.0,0.0,0.0,0.0,0.0,0.0,0.0,0.0,0.0
1796.828,242,1796,828000000,base_footprint,-7.2680647647266615e-06,0.0015896377383418376,0.0035297058611270474,0.9999925070597129,0.0,0.0,0.0,0.0,0.0,0.0,0.0,0.0,0.0,-4.581576163225971e-05,-0.00021190617789373264,1.1820022365116266e-05,0.0,0.0,0.0,0.0,0.0,0.0,0.0,0.0,0.0,1.1900283252184114e-10,3.9072793662601324e-10,-1.9522002125854315e-11,0.0,0.0,0.0,0.0,0.0,0.0,0.0,0.0,0.0
1796.829,243,1796,829000000,base_footprint,-7.26806830284122e-06,0.001589637738329263,0.003529708090033374,0.9999925070518456,0.0,0.0,0.0,0.0,0.0,0.0,0.0,0.0,0.0,-4.581575996711375e-05,-0.00021190617838142897,1.1820024787757383e-05,0.0,0.0,0.0,0.0,0.0,0.0,0.0,0.0,0.0,1.1959603496557483e-10,3.9260175286089525e-10,-2.3654150827608942e-11,0.0,0.0,0.0,0.0,0.0,0.0,0.0,0.0,0.0
1796.83,244,1796,830000000,base_footprint,-7.268071840955164e-06,0.0015896377383166856,0.003529710318939891,0.9999925070439781,0.0,0.0,0.0,0.0,0.0,0.0,0.0,0.0,0.0,-4.581575828101596e-05,-0.00021190617886558392,1.1820027215578612e-05,0.0,0.0,0.0,0.0,0.0,0.0,0.0,0.0,0.0,1.1987028199111685e-10,3.934777213685704e-10,-2.1476133497544505e-11,0.0,0.0,0.0,0.0,0.0,0.0,0.0,0.0,0.0
1796.831,245,1796,831000000,base_footprint,-7.268075379068136e-06,0.0015896377383041033,0.003529712547846595,0.9999925070361106,0.0,0.0,0.0,0.0,0.0,0.0,0.0,0.0,0.0,-4.581575659439425e-05,-0.00021190617935460375,1.1820029632596917e-05,0.0,0.0,0.0,0.0,0.0,0.0,0.0,0.0,0.0,1.1932184692946716e-10,3.917174743295152e-10,-2.0253296358344853e-11,0.0,0.0,0.0,0.0,0.0,0.0,0.0,0.0,0.0
1796.832,246,1796,832000000,base_footprint,-7.268078917177642e-06,0.001589637738291514,0.0035297147767534855,0.9999925070282432,0.0,0.0,0.0,0.0,0.0,0.0,0.0,0.0,0.0,-4.581575490268626e-05,-0.0002119061798480147,1.1820032050975428e-05,0.0,0.0,0.0,0.0,0.0,0.0,0.0,0.0,0.0,1.1938951808079035e-10,3.919473932097153e-10,-2.2614216953635407e-11,0.0,0.0,0.0,0.0,0.0,0.0,0.0,0.0,0.0
1796.833,247,1796,833000000,base_footprint,-7.2680824552925486e-06,0.0015896377382789405,0.0035297170056605627,0.9999925070203757,0.0,0.0,0.0,0.0,0.0,0.0,0.0,0.0,0.0,-4.5815753229140655e-05,-0.0002119061802955367,1.182003446835168e-05,0.0,0.0,0.0,0.0,0.0,0.0,0.0,0.0,0.0,1.1928041651698737e-10,3.917566204272771e-10,-2.51960886763088e-11,0.0,0.0,0.0,0.0,0.0,0.0,0.0,0.0,0.0
1796.833,248,1796,834000000,base_footprint,-7.2680859933974535e-06,0.0015896377382663633,0.00352971923456782,0.9999925070125082,0.0,0.0,0.0,0.0,0.0,0.0,0.0,0.0,0.0,-4.581575152468526e-05,-0.00021190618078226482,1.1820036873210652e-05,0.0,0.0,0.0,0.0,0.0,0.0,0.0,0.0,0.0,1.1869141056034934e-10,3.8976271934575e-10,-2.1414833711564255e-11,0.0,0.0,0.0,0.0,0.0,0.0,0.0,0.0,0.0
1796.835,249,1796,835000000,base_footprint,-7.268089531500871e-06,0.0015896377382537954,0.0035297214634752725,0.9999925070046407,0.0,0.0,0.0,0.0,0.0,0.0,0.0,0.0,0.0,-4.58157498370021e-05,-0.0002119061812426372,1.1820039306496702e-05,0.0,0.0,0.0,0.0,0.0,0.0,0.0,0.0,0.0,1.2011525271313334e-10,3.943725151515114e-10,-2.5415577184087963e-11,0.0,0.0,0.0,0.0,0.0,0.0,0.0,0.0,0.0
1796.836,250,1796,836000000,base_footprint,-7.2680930696076115e-06,0.0015896377382412163,0.0035297236923829047,0.9999925069967732,0.0,0.0,0.0,0.0,0.0,0.0,0.0,0.0,0.0,-4.581574815911566e-05,-0.00021190618174517356,1.1820041711182912e-05,0.0,0.0,0.0,0.0,0.0,0.0,0.0,0.0,0.0,1.1870445596852635e-10,3.8969290316590746e-10,-1.8308347423241486e-11,0.0,0.0,0.0,0.0,0.0,0.0,0.0,0.0,0.0
1796.837,251,1796,837000000,base_footprint,-7.2680966077203515e-06,0.001589637738228641,0.003529725921290723,0.9999925069889057,0.0,0.0,0.0,0.0,0.0,0.0,0.0,0.0,0.0,-4.581574648651848e-05,-0.00021190618221608655,1.1820044127265805e-05,0.0,0.0,0.0,0.0,0.0,0.0,0.0,0.0,0.0,1.1924062321125006e-10,3.915448869482958e-10,-2.39724555028472e-11,0.0,0.0,0.0,0.0,0.0,0.0,0.0,0.0,0.0
1796.838,252,1796,838000000,base_footprint,-7.268100145831381e-06,0.0015896377382160645,0.003529728150198726,0.9999925069810383,0.0,0.0,0.0,0.0,0.0,0.0,0.0,0.0,0.0,-4.5815744798527385e-05,-0.00021190618269817282,1.182004654123436e-05,0.0,0.0,0.0,0.0,0.0,0.0,0.0,0.0,0.0,1.1915476224146503e-10,3.9122256022894514e-10,-2.1171970803250387e-11,0.0,0.0,0.0,0.0,0.0,0.0,0.0,0.0,0.0
1796.839,253,1796,839000000,base_footprint,-7.268103683929157e-06,0.0015896377382034828,0.0035297303791069143,0.9999925069731708,0.0,0.0,0.0,0.0,0.0,0.0,0.0,0.0,0.0,-4.581574308723476e-05,-0.00021190618318791415,1.1820048955247459e-05,0.0,0.0,0.0,0.0,0.0,0.0,0.0,0.0,0.0,1.191727785072447e-10,3.9126593645214387e-10,-1.975733473032822e-11,0.0,0.0,0.0,0.0,0.0,0.0,0.0,0.0,0.0
1796.84,254,1796,840000000,base_footprint,-7.2681072220454646e-06,0.0015896377381908995,0.0035297326080152972,0.9999925069653033,0.0,0.0,0.0,0.0,0.0,0.0,0.0,0.0,0.0,-4.5815741439667584e-05,-0.00021190618367037208,1.1820051389369011e-05,0.0,0.0,0.0,0.0,0.0,0.0,0.0,0.0,0.0,1.2017944597421404e-10,3.944459929590122e-10,-2.391229888511598e-11,0.0,0.0,0.0,0.0,0.0,0.0,0.0,0.0,0.0
1796.841,255,1796,841000000,base_footprint,-7.268110760163652e-06,0.0015896377381783334,0.0035297348369238615,0.9999925069574358,0.0,0.0,0.0,0.0,0.0,0.0,0.0,0.0,0.0,-4.581573975915344e-05,-0.00021190618411540715,1.1820053795887216e-05,0.0,0.0,0.0,0.0,0.0,0.0,0.0,0.0,0.0,1.187199047434225e-10,3.8999601303112126e-10,-2.505597069618482e-11,0.0,0.0,0.0,0.0,0.0,0.0,0.0,0.0,0.0
1796.842,256,1796,842000000,base_footprint,-7.268114298277911e-06,0.0015896377381657693,0.0035297370658326148,0.9999925069495681,0.0,0.0,0.0,0.0,0.0,0.0,0.0,0.0,0.0,-4.581573806666033e-05,-0.0002119061845901125,1.18200562202578e-05,0.0,0.0,0.0,0.0,0.0,0.0,0.0,0.0,0.0,1.196803194546957e-10,3.929257639294009e-10,-2.2440121405248956e-11,0.0,0.0,0.0,0.0,0.0,0.0,0.0,0.0,0.0
1796.843,257,1796,843000000,base_footprint,-7.268117836383584e-06,0.0015896377381532008,0.0035297392947415494,0.9999925069417006,0.0,0.0,0.0,0.0,0.0,0.0,0.0,0.0,0.0,-4.581573636495361e-05,-0.00021190618507899994,1.1820058624663438e-05,0.0,0.0,0.0,0.0,0.0,0.0,0.0,0.0,0.0,1.1866801343390452e-10,3.896841673175542e-10,-2.2004789933806142e-11,0.0,0.0,0.0,0.0,0.0,0.0,0.0,0.0,0.0
1796.844,258,1796,844000000,base_footprint,-7.268121374503478e-06,0.0015896377381406247,0.0035297415236506774,0.9999925069338331,0.0,0.0,0.0,0.0,0.0,0.0,0.0,0.0,0.0,-4.5815734708569504e-05,-0.00021190618557357383,1.1820061056556248e-05,0.0,0.0,0.0,0.0,0.0,0.0,0.0,0.0,0.0,1.2009276581194576e-10,3.9409714372679927e-10,-1.9154667024097955e-11,0.0,0.0,0.0,0.0,0.0,0.0,0.0,0.0,0.0
1796.845,259,1796,845000000,base_footprint,-7.268124912613795e-06,0.0015896377381280442,0.0035297437525599945,0.9999925069259655,0.0,0.0,0.0,0.0,0.0,0.0,0.0,0.0,0.0,-4.581573300445115e-05,-0.0002119061860609504,1.1820063479948712e-05,0.0,0.0,0.0,0.0,0.0,0.0,0.0,0.0,0.0,1.1964824289990393e-10,3.927825939915463e-10,-2.1473742796052924e-11,0.0,0.0,0.0,0.0,0.0,0.0,0.0,0.0,0.0
1796.846,260,1796,846000000,base_footprint,-7.268128450724696e-06,0.00158963773811547,0.0035297459814694955,0.999992506918098,0.0,0.0,0.0,0.0,0.0,0.0,0.0,0.0,0.0,-4.58157313213206e-05,-0.00021190618652856756,1.182006589019829e-05,0.0,0.0,0.0,0.0,0.0,0.0,0.0,0.0,0.0,1.1894396606810652e-10,3.9060857137621373e-10,-2.2339416966170908e-11,0.0,0.0,0.0,0.0,0.0,0.0,0.0,0.0,0.0
1796.847,261,1796,847000000,base_footprint,-7.268131988843554e-06,0.0015896377381028955,0.0035297482103791855,0.9999925069102304,0.0,0.0,0.0,0.0,0.0,0.0,0.0,0.0,0.0,-4.581572965256743e-05,-0.00021190618700869975,1.182006831352273e-05,0.0,0.0,0.0,0.0,0.0,0.0,0.0,0.0,0.0,1.1961784613422852e-10,3.927192862324509e-10,-2.555000781112814e-11,0.0,0.0,0.0,0.0,0.0,0.0,0.0,0.0,0.0
1796.848,262,1796,848000000,base_footprint,-7.268135526953638e-06,0.0015896377380903214,0.0035297504392890647,0.9999925069023629,0.0,0.0,0.0,0.0,0.0,0.0,0.0,0.0,0.0,-4.581572795027075e-05,-0.00021190618748690118,1.182007073516039e-05,0.0,0.0,0.0,0.0,0.0,0.0,0.0,0.0,0.0,1.1955302855876534e-10,3.924944331534369e-10,-1.9857583808855984e-11,0.0,0.0,0.0,0.0,0.0,0.0,0.0,0.0,0.0
1796.849,263,1796,849000000,base_footprint,-7.268139065069115e-06,0.0015896377380777477,0.0035297526681991307,0.9999925068944953,0.0,0.0,0.0,0.0,0.0,0.0,0.0,0.0,0.0,-4.5815726276515546e-05,-0.00021190618796522516,1.1820073153238958e-05,0.0,0.0,0.0,0.0,0.0,0.0,0.0,0.0,0.0,1.1935200686827385e-10,3.918711207792806e-10,-2.382838129708009e-11,0.0,0.0,0.0,0.0,0.0,0.0,0.0,0.0,0.0
1796.85,264,1796,850000000,base_footprint,-7.268142603184718e-06,0.0015896377380651677,0.003529754897109379,0.9999925068866277,0.0,0.0,0.0,0.0,0.0,0.0,0.0,0.0,0.0,-4.581572459213085e-05,-0.00021190618845734176,1.1820075562471489e-05,0.0,0.0,0.0,0.0,0.0,0.0,0.0,0.0,0.0,1.1891787637448279e-10,3.90444973664291e-10,-2.1801678031077102e-11,0.0,0.0,0.0,0.0,0.0,0.0,0.0,0.0,0.0
1796.851,265,1796,851000000,base_footprint,-7.268146141294681e-06,0.001589637738052585,0.003529757126019816,0.9999925068787601,0.0,0.0,0.0,0.0,0.0,0.0,0.0,0.0,0.0,-4.581572289605215e-05,-0.00021190618894200152,1.1820077983253568e-05,0.0,0.0,0.0,0.0,0.0,0.0,0.0,0.0,0.0,1.195087949287378e-10,3.923466309518577e-10,-2.1419050771792624e-11,0.0,0.0,0.0,0.0,0.0,0.0,0.0,0.0,0.0
1796.852,266,1796,852000000,base_footprint,-7.26814967941946e-06,0.001589637738040005,0.00352975935493044,0.9999925068708927,0.0,0.0,0.0,0.0,0.0,0.0,0.0,0.0,0.0,-4.581572124129286e-05,-0.00021190618941691874,1.1820080401246276e-05,0.0,0.0,0.0,0.0,0.0,0.0,0.0,0.0,0.0,1.193471615711774e-10,3.9182780443758033e-10,-2.1957835541900144e-11,0.0,0.0,0.0,0.0,0.0,0.0,0.0,0.0,0.0
1796.853,267,1796,853000000,base_footprint,-7.268153217534734e-06,0.0015896377380274207,0.003529761583841253,0.9999925068630251,0.0,0.0,0.0,0.0,0.0,0.0,0.0,0.0,0.0,-4.581571953729938e-05,-0.00021190618990415345,1.182008282424808e-05,0.0,0.0,0.0,0.0,0.0,0.0,0.0,0.0,0.0,1.1963179721929926e-10,3.927197798711031e-10,-2.008490702761545e-11,0.0,0.0,0.0,0.0,0.0,0.0,0.0,0.0,0.0
1796.854,268,1796,854000000,base_footprint,-7.268156755660263e-06,0.001589637738014832,0.0035297638127522583,0.9999925068551575,0.0,0.0,0.0,0.0,0.0,0.0,0.0,0.0,0.0,-4.581571787309851e-05,-0.0002119061903923128,1.1820085253925878e-05,0.0,0.0,0.0,0.0,0.0,0.0,0.0,0.0,0.0,1.199608999867005e-10,3.9374693612882195e-10,-2.319269549152725e-11,0.0,0.0,0.0,0.0,0.0,0.0,0.0,0.0,0.0
1796.855,269,1796,855000000,base_footprint,-7.268160293770456e-06,0.0015896377380022566,0.003529766041663455,0.9999925068472899,0.0,0.0,0.0,0.0,0.0,0.0,0.0,0.0,0.0,-4.581571615775817e-05,-0.0002119061908444882,1.1820087679935414e-05,0.0,0.0,0.0,0.0,0.0,0.0,0.0,0.0,0.0,1.1974265615058872e-10,3.9322731239751e-10,-2.353858234919304e-11,0.0,0.0,0.0,0.0,0.0,0.0,0.0,0.0,0.0
1796.856,270,1796,856000000,base_footprint,-7.2681638318887806e-06,0.0015896377379896866,0.003529768270574836,0.9999925068394223,0.0,0.0,0.0,0.0,0.0,0.0,0.0,0.0,0.0,-4.581571448975091e-05,-0.00021190619131323355,1.1820090093323986e-05,0.0,0.0,0.0,0.0,0.0,0.0,0.0,0.0,0.0,1.191038240045077e-10,3.9109746325625255e-10,-2.2518215456930726e-11,0.0,0.0,0.0,0.0,0.0,0.0,0.0,0.0,0.0
1796.857,271,1796,857000000,base_footprint,-7.268167370001902e-06,0.0015896377379771194,0.003529770499486391,0.9999925068315547,0.0,0.0,0.0,0.0,0.0,0.0,0.0,0.0,0.0,-4.581571279508875e-05,-0.00021190619178678143,1.1820092485636935e-05,0.0,0.0,0.0,0.0,0.0,0.0,0.0,0.0,0.0,1.180181429082615e-10,3.8770288628793934e-10,-2.4857154474637703e-11,0.0,0.0,0.0,0.0,0.0,0.0,0.0,0.0,0.0
1796.858,272,1796,858000000,base_footprint,-7.268170908112511e-06,0.0015896377379645457,0.003529772728398128,0.9999925068236871,0.0,0.0,0.0,0.0,0.0,0.0,0.0,0.0,0.0,-4.5815711105468984e-05,-0.00021190619227952264,1.182009489339512e-05,0.0,0.0,0.0,0.0,0.0,0.0,0.0,0.0,0.0,1.188431654739054e-10,3.9021438595503345e-10,-2.156797760081289e-11,0.0,0.0,0.0,0.0,0.0,0.0,0.0,0.0,0.0
1796.859,273,1796,859000000,base_footprint,-7.26817444622206e-06,0.0015896377379519709,0.00352977495731005,0.9999925068158193,0.0,0.0,0.0,0.0,0.0,0.0,0.0,0.0,0.0,-4.581570941865381e-05,-0.00021190619276009837,1.1820097310069039e-05,0.0,0.0,0.0,0.0,0.0,0.0,0.0,0.0,0.0,1.1929570407463368e-10,3.9166260782261047e-10,-2.0043566884118763e-11,0.0,0.0,0.0,0.0,0.0,0.0,0.0,0.0,0.0
1796.86,274,1796,860000000,base_footprint,-7.268177984337403e-06,0.0015896377379393917,0.003529777186222169,0.9999925068079517,0.0,0.0,0.0,0.0,0.0,0.0,0.0,0.0,0.0,-4.581570774534471e-05,-0.0002119061932489355,1.1820099746774834e-05,0.0,0.0,0.0,0.0,0.0,0.0,0.0,0.0,0.0,1.2033194284942286e-10,3.949065087561974e-10,-2.11958255135761e-11,0.0,0.0,0.0,0.0,0.0,0.0,0.0,0.0,0.0
1796.861,275,1796,861000000,base_footprint,-7.268181522457893e-06,0.001589637737926815,0.0035297794151344848,0.9999925068000841,0.0,0.0,0.0,0.0,0.0,0.0,0.0,0.0,0.0,-4.581570607081677e-05,-0.0002119061937233996,1.1820102183455586e-05,0.0,0.0,0.0,0.0,0.0,0.0,0.0,0.0,0.0,1.203044548226024e-10,3.949036284753454e-10,-2.5041361604287444e-11,0.0,0.0,0.0,0.0,0.0,0.0,0.0,0.0,0.0
1796.862,276,1796,862000000,base_footprint,-7.268185060579196e-06,0.0015896377379142465,0.003529781644046979,0.9999925067922165,0.0,0.0,0.0,0.0,0.0,0.0,0.0,0.0,0.0,-4.581570438811586e-05,-0.00021190619418647665,1.1820104585213789e-05,0.0,0.0,0.0,0.0,0.0,0.0,0.0,0.0,0.0,1.185053861129434e-10,3.8922292418610083e-10,-2.115943297491382e-11,0.0,0.0,0.0,0.0,0.0,0.0,0.0,0.0,0.0
1796.862,277,1796,863000000,base_footprint,-7.26818859869237e-06,0.0015896377379016728,0.00352978387295966,0.9999925067843489,0.0,0.0,0.0,0.0,0.0,0.0,0.0,0.0,0.0,-4.581570268707862e-05,-0.00021190619467597446,1.1820107002984978e-05,0.0,0.0,0.0,0.0,0.0,0.0,0.0,0.0,0.0,1.1935591432801244e-10,3.9186393515913645e-10,-2.2329523967225196e-11,0.0,0.0,0.0,0.0,0.0,0.0,0.0,0.0,0.0
1796.864,278,1796,864000000,base_footprint,-7.268192136829102e-06,0.0015896377378890932,0.003529786101872516,0.9999925067764811,0.0,0.0,0.0,0.0,0.0,0.0,0.0,0.0,0.0,-4.581570105009849e-05,-0.00021190619516698654,1.1820109398815773e-05,0.0,0.0,0.0,0.0,0.0,0.0,0.0,0.0,0.0,1.1821899387621713e-10,3.881874309046719e-10,-2.143711007158828e-11,0.0,0.0,0.0,0.0,0.0,0.0,0.0,0.0,0.0
1796.866,279,1796,865000000,base_footprint,-7.268195674942087e-06,0.0015896377378765074,0.003529788330785572,0.9999925067686136,0.0,0.0,0.0,0.0,0.0,0.0,0.0,0.0,0.0,-4.5815699317144856e-05,-0.00021190619565967373,1.1820111838917591e-05,0.0,0.0,0.0,0.0,0.0,0.0,0.0,0.0,0.0,1.205181163930764e-10,3.9555300139673264e-10,-2.1736972581445975e-11,0.0,0.0,0.0,0.0,0.0,0.0,0.0,0.0,0.0
1796.866,280,1796,866000000,base_footprint,-7.268199213064052e-06,0.0015896377378639287,0.0035297905596988143,0.9999925067607459,0.0,0.0,0.0,0.0,0.0,0.0,0.0,0.0,0.0,-4.581569765079406e-05,-0.00021190619612410064,1.1820114258624843e-05,0.0,0.0,0.0,0.0,0.0,0.0,0.0,0.0,0.0,1.1942287456612368e-10,3.921238554777655e-10,-2.339047134023918e-11,0.0,0.0,0.0,0.0,0.0,0.0,0.0,0.0,0.0
1796.867,281,1796,867000000,base_footprint,-7.268202751173881e-06,0.0015896377378513513,0.0035297927886122457,0.9999925067528782,0.0,0.0,0.0,0.0,0.0,0.0,0.0,0.0,0.0,-4.581569594172061e-05,-0.00021190619660057362,1.18201166802382e-05,0.0,0.0,0.0,0.0,0.0,0.0,0.0,0.0,0.0,1.1954723212603334e-10,3.925012019474926e-10,-2.0992121205409813e-11,0.0,0.0,0.0,0.0,0.0,0.0,0.0,0.0,0.0
1796.868,282,1796,868000000,base_footprint,-7.268206289290074e-06,0.0015896377378387735,0.0035297950175258615,0.9999925067450105,0.0,0.0,0.0,0.0,0.0,0.0,0.0,0.0,0.0,-4.581569426997495e-05,-0.00021190619708068417,1.1820119093899766e-05,0.0,0.0,0.0,0.0,0.0,0.0,0.0,0.0,0.0,1.19124361197056e-10,3.9114787100023177e-10,-2.421409807880258e-11,0.0,0.0,0.0,0.0,0.0,0.0,0.0,0.0,0.0
1796.869,283,1796,869000000,base_footprint,-7.268209827411869e-06,0.001589637737826203,0.003529797246439666,0.9999925067371428,0.0,0.0,0.0,0.0,0.0,0.0,0.0,0.0,0.0,-4.581569259670378e-05,-0.00021190619754549528,1.1820121515443604e-05,0.0,0.0,0.0,0.0,0.0,0.0,0.0,0.0,0.0,1.1952987983809284e-10,3.9243527515758094e-10,-1.9801536586656046e-11,0.0,0.0,0.0,0.0,0.0,0.0,0.0,0.0,0.0
1796.87,284,1796,870000000,base_footprint,-7.268213365543394e-06,0.0015896377378136369,0.003529799475353672,0.9999925067292751,0.0,0.0,0.0,0.0,0.0,0.0,0.0,0.0,0.0,-4.581569093117648e-05,-0.0002119061980162114,1.1820123963111562e-05,0.0,0.0,0.0,0.0,0.0,0.0,0.0,0.0,0.0,1.2086784375559565e-10,3.966822821284458e-10,-2.426461554360554e-11,0.0,0.0,0.0,0.0,0.0,0.0,0.0,0.0,0.0
1796.871,285,1796,871000000,base_footprint,-7.2682169036598185e-06,0.0015896377378010623,0.003529801704267861,0.9999925067214076,0.0,0.0,0.0,0.0,0.0,0.0,0.0,0.0,0.0,-4.581568921622892e-05,-0.00021190619851337825,1.1820126371491676e-05,0.0,0.0,0.0,0.0,0.0,0.0,0.0,0.0,0.0,1.188854535142899e-10,3.903511113451582e-10,-2.1525987388797134e-11,0.0,0.0,0.0,0.0,0.0,0.0,0.0,0.0,0.0
1796.872,286,1796,872000000,base_footprint,-7.268220441786952e-06,0.001589637737788479,0.0035298039331822357,0.9999925067135399,0.0,0.0,0.0,0.0,0.0,0.0,0.0,0.0,0.0,-4.58156875529523e-05,-0.00021190619900937773,1.1820128788341867e-05,0.0,0.0,0.0,0.0,0.0,0.0,0.0,0.0,0.0,1.1930471046840228e-10,3.916558965099139e-10,-2.3631096235001957e-11,0.0,0.0,0.0,0.0,0.0,0.0,0.0,0.0,0.0
1796.873,287,1796,873000000,base_footprint,-7.268223979915088e-06,0.0015896377377759001,0.003529806162096793,0.9999925067056722,0.0,0.0,0.0,0.0,0.0,0.0,0.0,0.0,0.0,-4.581568587054116e-05,-0.00021190619947981967,1.1820131197716779e-05,0.0,0.0,0.0,0.0,0.0,0.0,0.0,0.0,0.0,1.1890895610843906e-10,3.904656103656663e-10,-1.987777806181623e-11,0.0,0.0,0.0,0.0,0.0,0.0,0.0,0.0,0.0
1796.874,288,1796,874000000,base_footprint,-7.26822751802889e-06,0.0015896377377633251,0.0035298083910115423,0.9999925066978045,0.0,0.0,0.0,0.0,0.0,0.0,0.0,0.0,0.0,-4.581568415700429e-05,-0.00021190619995104605,1.182013362608962e-05,0.0,0.0,0.0,0.0,0.0,0.0,0.0,0.0,0.0,1.1988700399171306e-10,3.9361093768751935e-10,-2.220946707681547e-11,0.0,0.0,0.0,0.0,0.0,0.0,0.0,0.0,0.0
1796.875,289,1796,875000000,base_footprint,-7.268231056146217e-06,0.0015896377377507475,0.0035298106199264795,0.9999925066899368,0.0,0.0,0.0,0.0,0.0,0.0,0.0,0.0,0.0,-4.5815682479425934e-05,-0.00021190620043564566,1.1820136045868202e-05,0.0,0.0,0.0,0.0,0.0,0.0,0.0,0.0,0.0,1.1945150063418374e-10,3.921536790450314e-10,-2.2315788121261177e-11,0.0,0.0,0.0,0.0,0.0,0.0,0.0,0.0,0.0
1796.876,290,1796,876000000,base_footprint,-7.268234594278855e-06,0.001589637737738167,0.0035298128488416053,0.9999925066820691,0.0,0.0,0.0,0.0,0.0,0.0,0.0,0.0,0.0,-4.58156808253772e-05,-0.0002119062009208307,1.1820138467975345e-05,0.0,0.0,0.0,0.0,0.0,0.0,0.0,0.0,0.0,1.1956341828609132e-10,3.9249771241294553e-10,-2.381881039452911e-11,0.0,0.0,0.0,0.0,0.0,0.0,0.0,0.0,0.0
1796.877,291,1796,877000000,base_footprint,-7.268238132408363e-06,0.0015896377377255905,0.003529815077756919,0.9999925066742013,0.0,0.0,0.0,0.0,0.0,0.0,0.0,0.0,0.0,-4.5815679134506235e-05,-0.00021190620139188818,1.1820140888197178e-05,0.0,0.0,0.0,0.0,0.0,0.0,0.0,0.0,0.0,1.1946285063589985e-10,3.922463856052259e-10,-2.232149158944237e-11,0.0,0.0,0.0,0.0,0.0,0.0,0.0,0.0,0.0
1796.878,292,1796,878000000,base_footprint,-7.268241670528182e-06,0.0015896377377130205,0.0035298173066724134,0.9999925066663334,0.0,0.0,0.0,0.0,0.0,0.0,0.0,0.0,0.0,-4.5815677430732076e-05,-0.0002119062018580882,1.1820143294286739e-05,0.0,0.0,0.0,0.0,0.0,0.0,0.0,0.0,0.0,1.187327807278605e-10,3.8996272573238293e-10,-2.1719402586627887e-11,0.0,0.0,0.0,0.0,0.0,0.0,0.0,0.0,0.0
1796.879,293,1796,879000000,base_footprint,-7.268245208650232e-06,0.0015896377377004405,0.003529819535588093,0.9999925066584657,0.0,0.0,0.0,0.0,0.0,0.0,0.0,0.0,0.0,-4.58156757504714e-05,-0.00021190620235799813,1.1820145708568758e-05,0.0,0.0,0.0,0.0,0.0,0.0,0.0,0.0,0.0,1.1918376706733719e-10,3.9126261324030437e-10,-2.2188265001347167e-11,0.0,0.0,0.0,0.0,0.0,0.0,0.0,0.0,0.0
1796.88,294,1796,880000000,base_footprint,-7.268248746763212e-06,0.0015896377376878657,0.0035298217645039556,0.999992506650598,0.0,0.0,0.0,0.0,0.0,0.0,0.0,0.0,0.0,-4.581567404782214e-05,-0.00021190620282648346,1.1820148118086729e-05,0.0,0.0,0.0,0.0,0.0,0.0,0.0,0.0,0.0,1.1890904724500038e-10,3.90520501194516e-10,-2.245900716681629e-11,0.0,0.0,0.0,0.0,0.0,0.0,0.0,0.0,0.0
1796.881,295,1796,881000000,base_footprint,-7.268252284885292e-06,0.0015896377376752877,0.0035298239934200082,0.9999925066427303,0.0,0.0,0.0,0.0,0.0,0.0,0.0,0.0,0.0,-4.581567238127498e-05,-0.0002119062033125849,1.1820150543036184e-05,0.0,0.0,0.0,0.0,0.0,0.0,0.0,0.0,0.0,1.1972050160791532e-10,3.929805971314806e-10,-2.13876952220298e-11,0.0,0.0,0.0,0.0,0.0,0.0,0.0,0.0,0.0
1796.882,296,1796,882000000,base_footprint,-7.268255823010887e-06,0.0015896377376627118,0.003529826222336255,0.9999925066348626,0.0,0.0,0.0,0.0,0.0,0.0,0.0,0.0,0.0,-4.581567070355407e-05,-0.0002119062037877773,1.1820152975849766e-05,0.0,0.0,0.0,0.0,0.0,0.0,0.0,0.0,0.0,1.2011164813031218e-10,3.942785496403128e-10,-2.3239911175522697e-11,0.0,0.0,0.0,0.0,0.0,0.0,0.0,0.0,0.0
1796.883,297,1796,883000000,base_footprint,-7.268259361124457e-06,0.0015896377376501318,0.0035298284512526815,0.9999925066269949,0.0,0.0,0.0,0.0,0.0,0.0,0.0,0.0,0.0,-4.5815668994915686e-05,-0.00021190620427510683,1.182015537864032e-05,0.0,0.0,0.0,0.0,0.0,0.0,0.0,0.0,0.0,1.1858838639790025e-10,3.8943132918975674e-10,-2.0673780793766237e-11,0.0,0.0,0.0,0.0,0.0,0.0,0.0,0.0,0.0
1796.884,298,1796,884000000,base_footprint,-7.268262899249827e-06,0.0015896377376375544,0.0035298306801692905,0.999992506619127,0.0,0.0,0.0,0.0,0.0,0.0,0.0,0.0,0.0,-4.581566733416651e-05,-0.0002119062047486495,1.182015778975983e-05,0.0,0.0,0.0,0.0,0.0,0.0,0.0,0.0,0.0,1.189880314679114e-10,3.9071753324863665e-10,-2.3064142826268994e-11,0.0,0.0,0.0,0.0,0.0,0.0,0.0,0.0,0.0
1796.885,299,1796,885000000,base_footprint,-7.268266437387457e-06,0.001589637737624973,0.0035298329090860843,0.9999925066112594,0.0,0.0,0.0,0.0,0.0,0.0,0.0,0.0,0.0,-4.581566567409942e-05,-0.000211906205238498,1.182016020027953e-05,0.0,0.0,0.0,0.0,0.0,0.0,0.0,0.0,0.0,1.1897834762548983e-10,3.9061791048340594e-10,-2.16076391291428e-11,0.0,0.0,0.0,0.0,0.0,0.0,0.0,0.0,0.0
1796.886,300,1796,886000000,base_footprint,-7.268269975508443e-06,0.001589637737612396,0.0035298351380030728,0.9999925066033916,0.0,0.0,0.0,0.0,0.0,0.0,0.0,0.0,0.0,-4.581566395578541e-05,-0.00021190620570726393,1.1820162635547557e-05,0.0,0.0,0.0,0.0,0.0,0.0,0.0,0.0,0.0,1.2023972164301128e-10,3.9474161688204034e-10,-2.268796715835567e-11,0.0,0.0,0.0,0.0,0.0,0.0,0.0,0.0,0.0
1796.887,301,1796,887000000,base_footprint,-7.268273513632055e-06,0.0015896377375998227,0.003529837366920251,0.9999925065955237,0.0,0.0,0.0,0.0,0.0,0.0,0.0,0.0,0.0,-4.5815662276594386e-05,-0.00021190620617913625,1.1820165059578005e-05,0.0,0.0,0.0,0.0,0.0,0.0,0.0,0.0,0.0,1.1965809845824273e-10,3.9284897659146197e-10,-2.240996227443854e-11,0.0,0.0,0.0,0.0,0.0,0.0,0.0,0.0,0.0
1796.888,302,1796,888000000,base_footprint,-7.268277051764608e-06,0.001589637737587253,0.003529839595837613,0.9999925065876559,0.0,0.0,0.0,0.0,0.0,0.0,0.0,0.0,0.0,-4.581566060999485e-05,-0.00021190620665143518,1.182016747105636e-05,0.0,0.0,0.0,0.0,0.0,0.0,0.0,0.0,0.0,1.1899850254032033e-10,3.9078388894199617e-10,-2.563565412257016e-11,0.0,0.0,0.0,0.0,0.0,0.0,0.0,0.0,0.0
1796.889,303,1796,889000000,base_footprint,-7.268280589889994e-06,0.0015896377375746874,0.0035298418247551567,0.9999925065797881,0.0,0.0,0.0,0.0,0.0,0.0,0.0,0.0,0.0,-4.5815658911164936e-05,-0.0002119062071227633,1.1820169878836642e-05,0.0,0.0,0.0,0.0,0.0,0.0,0.0,0.0,0.0,1.1881947242946503e-10,3.9023074497966693e-10,-2.32346010809981e-11,0.0,0.0,0.0,0.0,0.0,0.0,0.0,0.0,0.0
1796.89,304,1796,890000000,base_footprint,-7.26828412800838e-06,0.0015896377375621154,0.0035298440536728833,0.9999925065719205,0.0,0.0,0.0,0.0,0.0,0.0,0.0,0.0,0.0,-4.581565721255724e-05,-0.0002119062076156307,1.1820172287450948e-05,0.0,0.0,0.0,0.0,0.0,0.0,0.0,0.0,0.0,1.1890250731036972e-10,3.903667362688153e-10,-1.7399622330108438e-11,0.0,0.0,0.0,0.0,0.0,0.0,0.0,0.0,0.0
1796.891,305,1796,891000000,base_footprint,-7.268287666141165e-06,0.0015896377375495374,0.0035298462825907925,0.9999925065640527,0.0,0.0,0.0,0.0,0.0,0.0,0.0,0.0,0.0,-4.5815655556831795e-05,-0.00021190620810648814,1.1820174698533296e-05,0.0,0.0,0.0,0.0,0.0,0.0,0.0,0.0,0.0,1.190059905901513e-10,3.9070301270717967e-10,-2.21233851730053e-11,0.0,0.0,0.0,0.0,0.0,0.0,0.0,0.0,0.0
1796.892,306,1796,892000000,base_footprint,-7.268291204273174e-06,0.0015896377375369522,0.0035298485115089003,0.9999925065561847,0.0,0.0,0.0,0.0,0.0,0.0,0.0,0.0,0.0,-4.5815653870094145e-05,-0.00021190620859890523,1.1820177141949515e-05,0.0,0.0,0.0,0.0,0.0,0.0,0.0,0.0,0.0,1.2068708557196775e-10,3.9602155564772605e-10,-2.004296641785777e-11,0.0,0.0,0.0,0.0,0.0,0.0,0.0,0.0,0.0
1796.893,307,1796,893000000,base_footprint,-7.268294742399061e-06,0.0015896377375243633,0.0035298507404271967,0.9999925065483171,0.0,0.0,0.0,0.0,0.0,0.0,0.0,0.0,0.0,-4.581565217311703e-05,-0.00021190620908762597,1.1820179560023522e-05,0.0,0.0,0.0,0.0,0.0,0.0,0.0,0.0,0.0,1.193777312202621e-10,3.9190361615853137e-10,-2.0407023297011902e-11,0.0,0.0,0.0,0.0,0.0,0.0,0.0,0.0,0.0
1796.894,308,1796,894000000,base_footprint,-7.2682982805289094e-06,0.0015896377375117813,0.00352985296934568,0.9999925065404491,0.0,0.0,0.0,0.0,0.0,0.0,0.0,0.0,0.0,-4.581565049654963e-05,-0.0002119062095515234,1.1820181980048962e-05,0.0,0.0,0.0,0.0,0.0,0.0,0.0,0.0,0.0,1.194324344025558e-10,3.921933041405915e-10,-2.5554500835106756e-11,0.0,0.0,0.0,0.0,0.0,0.0,0.0,0.0,0.0
1796.895,309,1796,895000000,base_footprint,-7.268301818649755e-06,0.001589637737499207,0.0035298551982643534,0.9999925065325812,0.0,0.0,0.0,0.0,0.0,0.0,0.0,0.0,0.0,-4.58156487938903e-05,-0.0002119062100154853,1.1820184404751218e-05,0.0,0.0,0.0,0.0,0.0,0.0,0.0,0.0,0.0,1.1968690626666805e-10,3.9299512338561743e-10,-2.2825363410835002e-11,0.0,0.0,0.0,0.0,0.0,0.0,0.0,0.0,0.0
1796.896,310,1796,896000000,base_footprint,-7.2683053567833715e-06,0.001589637737486643,0.003529857427183212,0.9999925065247135,0.0,0.0,0.0,0.0,0.0,0.0,0.0,0.0,0.0,-4.581564713519581e-05,-0.0002119062104751072,1.1820186817422772e-05,0.0,0.0,0.0,0.0,0.0,0.0,0.0,0.0,0.0,1.190484162838761e-10,3.9096637538598127e-10,-2.4879060941736506e-11,0.0,0.0,0.0,0.0,0.0,0.0,0.0,0.0,0.0
1796.897,311,1796,897000000,base_footprint,-7.268308894916519e-06,0.0015896377374740723,0.0035298596561022704,0.9999925065168456,0.0,0.0,0.0,0.0,0.0,0.0,0.0,0.0,0.0,-4.581564544902112e-05,-0.0002119062109671668,1.1820189263359112e-05,0.0,0.0,0.0,0.0,0.0,0.0,0.0,0.0,0.0,1.2081004175176528e-10,3.964319564946419e-10,-2.2040166707135843e-11,0.0,0.0,0.0,0.0,0.0,0.0,0.0,0.0,0.0
1796.898,312,1796,898000000,base_footprint,-7.2683124330427845e-06,0.0015896377374614988,0.0035298618850215127,0.9999925065089778,0.0,0.0,0.0,0.0,0.0,0.0,0.0,0.0,0.0,-4.58156437506205e-05,-0.0002119062114523012,1.1820191674430973e-05,0.0,0.0,0.0,0.0,0.0,0.0,0.0,0.0,0.0,1.1901072662496422e-10,3.9076486990628714e-10,-2.1085123956474362e-11,0.0,0.0,0.0,0.0,0.0,0.0,0.0,0.0,0.0
1796.899,313,1796,899000000,base_footprint,-7.268315971169784e-06,0.0015896377374489332,0.00352986411394093,0.9999925065011099,0.0,0.0,0.0,0.0,0.0,0.0,0.0,0.0,0.0,-4.581564206803316e-05,-0.00021190621191583778,1.1820194067714627e-05,0.0,0.0,0.0,0.0,0.0,0.0,0.0,0.0,0.0,1.1806397684693565e-10,3.8784332224291836e-10,-2.2255280212466047e-11,0.0,0.0,0.0,0.0,0.0,0.0,0.0,0.0,0.0
1796.9,314,1796,900000000,base_footprint,-7.268319509287666e-06,0.001589637737436354,0.0035298663428605355,0.9999925064932421,0.0,0.0,0.0,0.0,0.0,0.0,0.0,0.0,0.0,-4.58156403647259e-05,-0.00021190621242195664,1.1820196489379756e-05,0.0,0.0,0.0,0.0,0.0,0.0,0.0,0.0,0.0,1.195812843628728e-10,3.9250248544438567e-10,-1.9893846009331902e-11,0.0,0.0,0.0,0.0,0.0,0.0,0.0,0.0,0.0
1796.901,315,1796,901000000,base_footprint,-7.268323047424142e-06,0.0015896377374237658,0.0035298685717803243,0.9999925064853743,0.0,0.0,0.0,0.0,0.0,0.0,0.0,0.0,0.0,-4.5815638717389235e-05,-0.00021190621292015957,1.182019890023749e-05,0.0,0.0,0.0,0.0,0.0,0.0,0.0,0.0,0.0,1.1900315382084783e-10,3.906531980587853e-10,-2.1306973340594198e-11,0.0,0.0,0.0,0.0,0.0,0.0,0.0,0.0,0.0
1796.902,316,1796,902000000,base_footprint,-7.268326585554246e-06,0.0015896377374111776,0.0035298708007003017,0.9999925064775065,0.0,0.0,0.0,0.0,0.0,0.0,0.0,0.0,0.0,-4.581563701980099e-05,-0.00021190621339921585,1.1820201321774064e-05,0.0,0.0,0.0,0.0,0.0,0.0,0.0,0.0,0.0,1.1954573695268222e-10,3.9247114712651956e-10,-2.0392671013601803e-11,0.0,0.0,0.0,0.0,0.0,0.0,0.0,0.0,0.0
1796.903,317,1796,903000000,base_footprint,-7.268330123693666e-06,0.001589637737398591,0.003529873029620475,0.9999925064696386,0.0,0.0,0.0,0.0,0.0,0.0,0.0,0.0,0.0,-4.58156353536347e-05,-0.00021190621387471927,1.1820203758539525e-05,0.0,0.0,0.0,0.0,0.0,0.0,0.0,0.0,0.0,1.2031148051086972e-10,3.949059265507753e-10,-2.3852740285438163e-11,0.0,0.0,0.0,0.0,0.0,0.0,0.0,0.0,0.0
1796.904,318,1796,904000000,base_footprint,-7.2683336618219984e-06,0.0015896377373860145,0.0035298752585408376,0.9999925064617706,0.0,0.0,0.0,0.0,0.0,0.0,0.0,0.0,0.0,-4.5815633646844516e-05,-0.00021190621433372507,1.1820206180976652e-05,0.0,0.0,0.0,0.0,0.0,0.0,0.0,0.0,0.0,1.1956242257470168e-10,3.9263070474905786e-10,-2.4075198814528607e-11,0.0,0.0,0.0,0.0,0.0,0.0,0.0,0.0,0.0
1796.905,319,1796,905000000,base_footprint,-7.2683371999507634e-06,0.0015896377373734428,0.0035298774874613905,0.9999925064539029,0.0,0.0,0.0,0.0,0.0,0.0,0.0,0.0,0.0,-4.5815631963182774e-05,-0.00021190621480499656,1.1820208603686335e-05,0.0,0.0,0.0,0.0,0.0,0.0,0.0,0.0,0.0,1.1958769577530413e-10,3.926418879947167e-10,-2.2930200321654995e-11,0.0,0.0,0.0,0.0,0.0,0.0,0.0,0.0,0.0
