Time,header.seq,header.stamp.secs,header.stamp.nsecs,header.frame_id,orientation.x,orientation.y,orientation.z,orientation.w,orientation_covariance_0,orientation_covariance_1,orientation_covariance_2,orientation_covariance_3,orientation_covariance_4,orientation_covariance_5,orientation_covariance_6,orientation_covariance_7,orientation_covariance_8,angular_velocity.x,angular_velocity.y,angular_velocity.z,angular_velocity_covariance_0,angular_velocity_covariance_1,angular_velocity_covariance_2,angular_velocity_covariance_3,angular_velocity_covariance_4,angular_velocity_covariance_5,angular_velocity_covariance_6,angular_velocity_covariance_7,angular_velocity_covariance_8,linear_acceleration.x,linear_acceleration.y,linear_acceleration.z,linear_acceleration_covariance_0,linear_acceleration_covariance_1,linear_acceleration_covariance_2,linear_acceleration_covariance_3,linear_acceleration_covariance_4,linear_acceleration_covariance_5,linear_acceleration_covariance_6,linear_acceleration_covariance_7,linear_acceleration_covariance_8
1150.515,1150274,1150,510000000,base_footprint,-5.114858587236436e-06,0.0015896443612783177,0.0021734020469056444,0.9999963746575211,0.0,0.0,0.0,0.0,0.0,0.0,0.0,0.0,0.0,-4.682282876685468e-05,-0.00021157723623406566,1.0215049400079255e-05,0.0,0.0,0.0,0.0,0.0,0.0,0.0,0.0,0.0,1.1645449162231324e-10,3.133905076353846e-10,2.037896193777997e-11,0.0,0.0,0.0,0.0,0.0,0.0,0.0,0.0,0.0
1150.515,1150275,1150,511000000,base_footprint,-5.1148617029497435e-06,0.0015896443612701452,0.002173404008341237,0.9999963746532581,0.0,0.0,0.0,0.0,0.0,0.0,0.0,0.0,0.0,-4.6822826137962015e-05,-0.00021157723629628328,1.0215051489134148e-05,0.0,0.0,0.0,0.0,0.0,0.0,0.0,0.0,0.0,1.171443171386983e-10,3.156005114298198e-10,1.46294816751496e-11,0.0,0.0,0.0,0.0,0.0,0.0,0.0,0.0,0.0
1150.515,1150276,1150,512000000,base_footprint,-5.114864818658081e-06,0.0015896443612619686,0.0021734059697769616,0.999996374648995,0.0,0.0,0.0,0.0,0.0,0.0,0.0,0.0,0.0,-4.682282347945216e-05,-0.0002115772363716138,1.0215053570178647e-05,0.0,0.0,0.0,0.0,0.0,0.0,0.0,0.0,0.0,1.167520337360343e-10,3.1433619788447783e-10,1.6849039372559198e-11,0.0,0.0,0.0,0.0,0.0,0.0,0.0,0.0,0.0
1150.515,1150277,1150,513000000,base_footprint,-5.114867934357299e-06,0.0015896443612537928,0.0021734079312128135,0.9999963746447322,0.0,0.0,0.0,0.0,0.0,0.0,0.0,0.0,0.0,-4.682282081273651e-05,-0.00021157723643775488,1.0215055640084941e-05,0.0,0.0,0.0,0.0,0.0,0.0,0.0,0.0,0.0,1.1615864897415722e-10,3.1253421858012115e-10,1.6217535569433885e-11,0.0,0.0,0.0,0.0,0.0,0.0,0.0,0.0,0.0
1150.515,1150278,1150,514000000,base_footprint,-5.114871050058316e-06,0.001589644361245619,0.00217340989264879,0.9999963746404692,0.0,0.0,0.0,0.0,0.0,0.0,0.0,0.0,0.0,-4.682281816788248e-05,-0.0002115772365003938,1.0215057707084579e-05,0.0,0.0,0.0,0.0,0.0,0.0,0.0,0.0,0.0,1.1599744764147893e-10,3.1202688896916427e-10,1.55880508023076e-11,0.0,0.0,0.0,0.0,0.0,0.0,0.0,0.0,0.0
1150.515,1150279,1150,515000000,base_footprint,-5.114874165766672e-06,0.0015896443612374539,0.002173411854084892,0.9999963746362062,0.0,0.0,0.0,0.0,0.0,0.0,0.0,0.0,0.0,-4.6822815534150214e-05,-0.00021157723655025243,1.0215059775422716e-05,0.0,0.0,0.0,0.0,0.0,0.0,0.0,0.0,0.0,1.1605446199485904e-10,3.122282714021381e-10,1.6128784052879378e-11,0.0,0.0,0.0,0.0,0.0,0.0,0.0,0.0,0.0
1150.516,1150280,1150,516000000,base_footprint,-5.114877281466059e-06,0.001589644361229289,0.0021734138155211254,0.9999963746319431,0.0,0.0,0.0,0.0,0.0,0.0,0.0,0.0,0.0,-4.6822812867805205e-05,-0.00021157723661708046,1.0215061854363951e-05,0.0,0.0,0.0,0.0,0.0,0.0,0.0,0.0,0.0,1.166297886470798e-10,3.1400793551064355e-10,1.5702443582066156e-11,0.0,0.0,0.0,0.0,0.0,0.0,0.0,0.0,0.0
1150.517,1150281,1150,517000000,base_footprint,-5.114880397172766e-06,0.0015896443612211284,0.002173415776957495,0.9999963746276801,0.0,0.0,0.0,0.0,0.0,0.0,0.0,0.0,0.0,-4.6822810234319667e-05,-0.00021157723667586316,1.021506394365101e-05,0.0,0.0,0.0,0.0,0.0,0.0,0.0,0.0,0.0,1.1716042596659443e-10,3.156462871721009e-10,1.6858452164597202e-11,0.0,0.0,0.0,0.0,0.0,0.0,0.0,0.0,0.0
1150.518,1150282,1150,518000000,base_footprint,-5.114883512876427e-06,0.0015896443612129594,0.0021734177383939974,0.9999963746234171,0.0,0.0,0.0,0.0,0.0,0.0,0.0,0.0,0.0,-4.682280757965758e-05,-0.0002115772367599344,1.0215066026476766e-05,0.0,0.0,0.0,0.0,0.0,0.0,0.0,0.0,0.0,1.1685464811611484e-10,3.146202119152952e-10,1.7176775925163496e-11,0.0,0.0,0.0,0.0,0.0,0.0,0.0,0.0,0.0
1150.519,1150283,1150,519000000,base_footprint,-5.114886628578059e-06,0.0015896443612047908,0.0021734196998306303,0.999996374619154,0.0,0.0,0.0,0.0,0.0,0.0,0.0,0.0,0.0,-4.682280492719984e-05,-0.00021157723682676332,1.0215068103568886e-05,0.0,0.0,0.0,0.0,0.0,0.0,0.0,0.0,0.0,1.165411001427648e-10,3.1368480930622823e-10,1.8894502875225508e-11,0.0,0.0,0.0,0.0,0.0,0.0,0.0,0.0,0.0
1150.52,1150284,1150,520000000,base_footprint,-5.114889744282206e-06,0.0015896443611966159,0.002173421661267386,0.999996374614891,0.0,0.0,0.0,0.0,0.0,0.0,0.0,0.0,0.0,-4.6822802283436246e-05,-0.00021157723690612673,1.021507016614603e-05,0.0,0.0,0.0,0.0,0.0,0.0,0.0,0.0,0.0,1.1578302892292994e-10,3.113004208365312e-10,1.51456021531245e-11,0.0,0.0,0.0,0.0,0.0,0.0,0.0,0.0,0.0
1150.521,1150285,1150,521000000,base_footprint,-5.114892859982564e-06,0.0015896443611884484,0.002173423622704273,0.999996374610628,0.0,0.0,0.0,0.0,0.0,0.0,0.0,0.0,0.0,-4.6822799627717454e-05,-0.0002115772369587812,1.0215072245424786e-05,0.0,0.0,0.0,0.0,0.0,0.0,0.0,0.0,0.0,1.1663568772615528e-10,3.140511677028766e-10,1.7699249957402397e-11,0.0,0.0,0.0,0.0,0.0,0.0,0.0,0.0,0.0
1150.522,1150286,1150,522000000,base_footprint,-5.11489597567992e-06,0.0015896443611802715,0.002173425584141291,0.9999963746063649,0.0,0.0,0.0,0.0,0.0,0.0,0.0,0.0,0.0,-4.682279697316018e-05,-0.00021157723704496844,1.021507432464812e-05,0.0,0.0,0.0,0.0,0.0,0.0,0.0,0.0,0.0,1.1666760090738785e-10,3.140331649156049e-10,1.7046238953319295e-11,0.0,0.0,0.0,0.0,0.0,0.0,0.0,0.0,0.0
1150.523,1150287,1150,523000000,base_footprint,-5.114899091387401e-06,0.0015896443611720906,0.0021734275455784526,0.9999963746021019,0.0,0.0,0.0,0.0,0.0,0.0,0.0,0.0,0.0,-4.6822794345467556e-05,-0.00021157723712079293,1.0215076428663638e-05,0.0,0.0,0.0,0.0,0.0,0.0,0.0,0.0,0.0,1.1794783420108962e-10,3.180438186874047e-10,1.7805592251281052e-11,0.0,0.0,0.0,0.0,0.0,0.0,0.0,0.0,0.0
1150.524,1150288,1150,524000000,base_footprint,-5.114902207104466e-06,0.0015896443611639185,0.002173429507015748,0.9999963745978387,0.0,0.0,0.0,0.0,0.0,0.0,0.0,0.0,0.0,-4.6822791716263044e-05,-0.00021157723716960187,1.0215078513090885e-05,0.0,0.0,0.0,0.0,0.0,0.0,0.0,0.0,0.0,1.168885380808926e-10,3.1484223829123466e-10,1.3936096428371144e-11,0.0,0.0,0.0,0.0,0.0,0.0,0.0,0.0,0.0
1150.525,1150289,1150,525000000,base_footprint,-5.114905322815388e-06,0.00158964436115574,0.0021734314684531617,0.9999963745935756,0.0,0.0,0.0,0.0,0.0,0.0,0.0,0.0,0.0,-4.682278905502383e-05,-0.00021157723725012353,1.0215080566854215e-05,0.0,0.0,0.0,0.0,0.0,0.0,0.0,0.0,0.0,1.1534100867570014e-10,3.0988648900850506e-10,1.9346222112899025e-11,0.0,0.0,0.0,0.0,0.0,0.0,0.0,0.0,0.0
1150.526,1150290,1150,526000000,base_footprint,-5.1149084385204275e-06,0.0015896443611475737,0.0021734334298907,0.9999963745893126,0.0,0.0,0.0,0.0,0.0,0.0,0.0,0.0,0.0,-4.6822786394870575e-05,-0.00021157723729235808,1.021508263238992e-05,0.0,0.0,0.0,0.0,0.0,0.0,0.0,0.0,0.0,1.1589957313334091e-10,3.1181469231997334e-10,1.502382541417528e-11,0.0,0.0,0.0,0.0,0.0,0.0,0.0,0.0,0.0
1150.527,1150291,1150,527000000,base_footprint,-5.1149115542254015e-06,0.0015896443611394084,0.002173435391328373,0.9999963745850495,0.0,0.0,0.0,0.0,0.0,0.0,0.0,0.0,0.0,-4.6822783746631776e-05,-0.00021157723735835463,1.0215084718453135e-05,0.0,0.0,0.0,0.0,0.0,0.0,0.0,0.0,0.0,1.1699408496664896e-10,3.1514448983158133e-10,1.4757056522966217e-11,0.0,0.0,0.0,0.0,0.0,0.0,0.0,0.0,0.0
1150.528,1150292,1150,528000000,base_footprint,-5.114914669929449e-06,0.001589644361131246,0.0021734373527661703,0.9999963745807863,0.0,0.0,0.0,0.0,0.0,0.0,0.0,0.0,0.0,-4.6822781096154756e-05,-0.0002115772374185053,1.0215086784882013e-05,0.0,0.0,0.0,0.0,0.0,0.0,0.0,0.0,0.0,1.1597181592833569e-10,3.119379695220874e-10,1.6766227020638338e-11,0.0,0.0,0.0,0.0,0.0,0.0,0.0,0.0,0.0
1150.529,1150293,1150,529000000,base_footprint,-5.114917785628299e-06,0.0015896443611230773,0.002173439314204101,0.9999963745765232,0.0,0.0,0.0,0.0,0.0,0.0,0.0,0.0,0.0,-4.6822778437332145e-05,-0.00021157723749979496,1.0215088867471827e-05,0.0,0.0,0.0,0.0,0.0,0.0,0.0,0.0,0.0,1.1683794068061484e-10,3.145933246179802e-10,1.7266066526473023e-11,0.0,0.0,0.0,0.0,0.0,0.0,0.0,0.0,0.0
1150.53,1150294,1150,530000000,base_footprint,-5.114920901328932e-06,0.001589644361114903,0.002173441275642164,0.9999963745722602,0.0,0.0,0.0,0.0,0.0,0.0,0.0,0.0,0.0,-4.682277579252346e-05,-0.00021157723757790297,1.0215090947792506e-05,0.0,0.0,0.0,0.0,0.0,0.0,0.0,0.0,0.0,1.1672218108893822e-10,3.1419964925210605e-10,1.958056056124439e-11,0.0,0.0,0.0,0.0,0.0,0.0,0.0,0.0,0.0
1150.531,1150295,1150,531000000,base_footprint,-5.114924017036043e-06,0.0015896443611067251,0.0021734432370803577,0.9999963745679972,0.0,0.0,0.0,0.0,0.0,0.0,0.0,0.0,0.0,-4.682277315703309e-05,-0.00021157723765273358,1.021509302686867e-05,0.0,0.0,0.0,0.0,0.0,0.0,0.0,0.0,0.0,1.1664603477142996e-10,3.139814689186273e-10,1.7485392139006653e-11,0.0,0.0,0.0,0.0,0.0,0.0,0.0,0.0,0.0
1150.531,1150296,1150,532000000,base_footprint,-5.114927132747706e-06,0.0015896443610985502,0.0021734451985186746,0.999996374563734,0.0,0.0,0.0,0.0,0.0,0.0,0.0,0.0,0.0,-4.6822770517466e-05,-0.00021157723771391752,1.0215095090485263e-05,0.0,0.0,0.0,0.0,0.0,0.0,0.0,0.0,0.0,1.1581758904043586e-10,3.1146424645564387e-10,1.500700900033956e-11,0.0,0.0,0.0,0.0,0.0,0.0,0.0,0.0,0.0
1150.532,1150297,1150,533000000,base_footprint,-5.11493024845463e-06,0.0015896443610903753,0.0021734471599571194,0.9999963745594709,0.0,0.0,0.0,0.0,0.0,0.0,0.0,0.0,0.0,-4.682276785950349e-05,-0.0002115772377808024,1.0215097162494172e-05,0.0,0.0,0.0,0.0,0.0,0.0,0.0,0.0,0.0,1.1626915990268561e-10,3.1286422650188816e-10,1.6699583133347305e-11,0.0,0.0,0.0,0.0,0.0,0.0,0.0,0.0,0.0
1150.534,1150298,1150,534000000,base_footprint,-5.114933364162857e-06,0.0015896443610821957,0.002173449121395704,0.999996374555208,0.0,0.0,0.0,0.0,0.0,0.0,0.0,0.0,0.0,-4.682276521386135e-05,-0.00021157723785887584,1.0215099257943878e-05,0.0,0.0,0.0,0.0,0.0,0.0,0.0,0.0,0.0,1.1750861356405886e-10,3.1667109419747983e-10,1.8463486314065476e-11,0.0,0.0,0.0,0.0,0.0,0.0,0.0,0.0,0.0
1150.535,1150299,1150,535000000,base_footprint,-5.114936479869833e-06,0.0015896443610740171,0.0021734510828344176,0.9999963745509448,0.0,0.0,0.0,0.0,0.0,0.0,0.0,0.0,0.0,-4.6822762562873916e-05,-0.00021157723792302583,1.021510133385279e-05,0.0,0.0,0.0,0.0,0.0,0.0,0.0,0.0,0.0,1.1647014983856545e-10,3.1348553003470867e-10,1.6383591679359002e-11,0.0,0.0,0.0,0.0,0.0,0.0,0.0,0.0,0.0
1150.536,1150300,1150,536000000,base_footprint,-5.114939595583069e-06,0.0015896443610658516,0.0021734530442732614,0.9999963745466817,0.0,0.0,0.0,0.0,0.0,0.0,0.0,0.0,0.0,-4.682275992716429e-05,-0.0002115772379640311,1.0215103411298121e-05,0.0,0.0,0.0,0.0,0.0,0.0,0.0,0.0,0.0,1.1651106158039506e-10,3.137175158839868e-10,1.2801513375430395e-11,0.0,0.0,0.0,0.0,0.0,0.0,0.0,0.0,0.0
1150.536,1150301,1150,537000000,base_footprint,-5.11494271129652e-06,0.001589644361057677,0.0021734550057122336,0.9999963745424185,0.0,0.0,0.0,0.0,0.0,0.0,0.0,0.0,0.0,-4.6822757278947374e-05,-0.00021157723805003366,1.021510548478938e-05,0.0,0.0,0.0,0.0,0.0,0.0,0.0,0.0,0.0,1.1637500224864036e-10,3.1308811302454006e-10,1.9621297598296953e-11,0.0,0.0,0.0,0.0,0.0,0.0,0.0,0.0,0.0
1150.539,1150302,1150,538000000,base_footprint,-5.1149458270039856e-06,0.0015896443610495072,0.002173456967151336,0.9999963745381554,0.0,0.0,0.0,0.0,0.0,0.0,0.0,0.0,0.0,-4.6822754618602137e-05,-0.00021157723810684954,1.0215107561973883e-05,0.0,0.0,0.0,0.0,0.0,0.0,0.0,0.0,0.0,1.1652524158090428e-10,3.1371355776227806e-10,1.5418339047667473e-11,0.0,0.0,0.0,0.0,0.0,0.0,0.0,0.0,0.0
1150.539,1150303,1150,539000000,base_footprint,-5.114948942709442e-06,0.001589644361041343,0.0021734589285905643,0.9999963745338922,0.0,0.0,0.0,0.0,0.0,0.0,0.0,0.0,0.0,-4.682275196608048e-05,-0.00021157723816323283,1.021510963030476e-05,0.0,0.0,0.0,0.0,0.0,0.0,0.0,0.0,0.0,1.1605823058764765e-10,3.122532850234252e-10,1.4054052119134107e-11,0.0,0.0,0.0,0.0,0.0,0.0,0.0,0.0,0.0
1150.54,1150304,1150,540000000,base_footprint,-5.11495205841965e-06,0.0015896443610331763,0.0021734608900299233,0.9999963745296291,0.0,0.0,0.0,0.0,0.0,0.0,0.0,0.0,0.0,-4.682274932722345e-05,-0.00021157723823547682,1.0215111708616036e-05,0.0,0.0,0.0,0.0,0.0,0.0,0.0,0.0,0.0,1.1660661046198342e-10,3.1386271450527386e-10,1.8445653118760643e-11,0.0,0.0,0.0,0.0,0.0,0.0,0.0,0.0,0.0
1150.541,1150305,1150,541000000,base_footprint,-5.114955174124461e-06,0.0015896443610250073,0.0021734628514694185,0.9999963745253659,0.0,0.0,0.0,0.0,0.0,0.0,0.0,0.0,0.0,-4.6822746668076225e-05,-0.00021157723830750913,1.0215113797615668e-05,0.0,0.0,0.0,0.0,0.0,0.0,0.0,0.0,0.0,1.1716461949731398e-10,3.1563812810785894e-10,1.7336127216718747e-11,0.0,0.0,0.0,0.0,0.0,0.0,0.0,0.0,0.0
1150.542,1150306,1150,542000000,base_footprint,-5.114958289831327e-06,0.001589644361016829,0.002173464812909047,0.9999963745211028,0.0,0.0,0.0,0.0,0.0,0.0,0.0,0.0,0.0,-4.6822744023735003e-05,-0.00021157723839372415,1.0215115880611674e-05,0.0,0.0,0.0,0.0,0.0,0.0,0.0,0.0,0.0,1.168697273918854e-10,3.1463391189553703e-10,1.9256841022487747e-11,0.0,0.0,0.0,0.0,0.0,0.0,0.0,0.0,0.0
1150.543,1150307,1150,543000000,base_footprint,-5.114961405539936e-06,0.0015896443610086562,0.0021734667743487962,0.9999963745168396,0.0,0.0,0.0,0.0,0.0,0.0,0.0,0.0,0.0,-4.682274137859005e-05,-0.00021157723844948518,1.0215117939844288e-05,0.0,0.0,0.0,0.0,0.0,0.0,0.0,0.0,0.0,1.1558935984429571e-10,3.107573739441833e-10,1.670708631580366e-11,0.0,0.0,0.0,0.0,0.0,0.0,0.0,0.0,0.0
1150.544,1150308,1150,544000000,base_footprint,-5.114964521245809e-06,0.0015896443610004826,0.002173468735788685,0.9999963745125765,0.0,0.0,0.0,0.0,0.0,0.0,0.0,0.0,0.0,-4.6822738724979544e-05,-0.00021157723851871854,1.0215120035736047e-05,0.0,0.0,0.0,0.0,0.0,0.0,0.0,0.0,0.0,1.175085596065496e-10,3.167589958251206e-10,1.411723527823019e-11,0.0,0.0,0.0,0.0,0.0,0.0,0.0,0.0,0.0
1150.545,1150309,1150,545000000,base_footprint,-5.114967636951778e-06,0.001589644360992318,0.002173470697228703,0.9999963745083136,0.0,0.0,0.0,0.0,0.0,0.0,0.0,0.0,0.0,-4.6822736076797414e-05,-0.00021157723856909884,1.021512210893929e-05,0.0,0.0,0.0,0.0,0.0,0.0,0.0,0.0,0.0,1.1631513902334322e-10,3.1304207630697853e-10,1.6956106467219298e-11,0.0,0.0,0.0,0.0,0.0,0.0,0.0,0.0,0.0
1150.545,348212,1778966242,558851268,imu_link,-0.017081130295991898,0.016796838492155075,-0.3715789020061493,-0.9280876517295837,0.0024999999441206455,0.0,0.0,0.0,0.0024999999441206455,0.0,0.0,0.0,0.0024999999441206455,0.0,0.0,0.0,0.019999999552965164,0.0,0.0,0.0,0.019999999552965164,0.0,0.0,0.0,0.019999999552965164,0.48961424827575684,0.18914192914962769,9.597755432128906,0.03999999910593033,0.0,0.0,0.0,0.03999999910593033,0.0,0.0,0.0,0.03999999910593033
1150.546,1150310,1150,546000000,base_footprint,-5.114970752658234e-06,0.0015896443609841446,0.0021734726586688426,0.9999963745040502,0.0,0.0,0.0,0.0,0.0,0.0,0.0,0.0,0.0,-4.682273342904317e-05,-0.00021157723865197094,1.0215124171862157e-05,0.0,0.0,0.0,0.0,0.0,0.0,0.0,0.0,0.0,1.158167681257883e-10,3.1136289643725617e-10,1.8773909820270454e-11,0.0,0.0,0.0,0.0,0.0,0.0,0.0,0.0,0.0
1150.547,1150311,1150,547000000,base_footprint,-5.1149738683578e-06,0.0015896443609759695,0.0021734746201091237,0.9999963744997871,0.0,0.0,0.0,0.0,0.0,0.0,0.0,0.0,0.0,-4.6822730767201796e-05,-0.00021157723872364427,1.0215126270224833e-05,0.0,0.0,0.0,0.0,0.0,0.0,0.0,0.0,0.0,1.1765198057512905e-10,3.171754338395935e-10,1.7514807689079322e-11,0.0,0.0,0.0,0.0,0.0,0.0,0.0,0.0,0.0
1150.548,1150312,1150,548000000,base_footprint,-5.114976984069824e-06,0.001589644360967794,0.0021734765815495383,0.9999963744955239,0.0,0.0,0.0,0.0,0.0,0.0,0.0,0.0,0.0,-4.682272814378033e-05,-0.00021157723879164928,1.0215128353926315e-05,0.0,0.0,0.0,0.0,0.0,0.0,0.0,0.0,0.0,1.168711751133438e-10,3.147152874497663e-10,1.470876008475166e-11,0.0,0.0,0.0,0.0,0.0,0.0,0.0,0.0,0.0
1150.549,1150313,1150,549000000,base_footprint,-5.11498009978433e-06,0.0015896443609596253,0.002173478542990073,0.9999963744912608,0.0,0.0,0.0,0.0,0.0,0.0,0.0,0.0,0.0,-4.682272550004655e-05,-0.0002115772388449825,1.0215130411562106e-05,0.0,0.0,0.0,0.0,0.0,0.0,0.0,0.0,0.0,1.155039072337024e-10,3.104941244132498e-10,1.6844284355603848e-11,0.0,0.0,0.0,0.0,0.0,0.0,0.0,0.0,0.0
1150.55,1150314,1150,550000000,base_footprint,-5.114983215494074e-06,0.001589644360951454,0.002173480504430746,0.9999963744869976,0.0,0.0,0.0,0.0,0.0,0.0,0.0,0.0,0.0,-4.6822722842345164e-05,-0.00021157723891835817,1.0215132504977107e-05,0.0,0.0,0.0,0.0,0.0,0.0,0.0,0.0,0.0,1.173949608704301e-10,3.163599561148685e-10,1.7398781533938972e-11,0.0,0.0,0.0,0.0,0.0,0.0,0.0,0.0,0.0
1150.551,1150315,1150,551000000,base_footprint,-5.114986331209589e-06,0.0015896443609432845,0.002173482465871548,0.9999963744827345,0.0,0.0,0.0,0.0,0.0,0.0,0.0,0.0,0.0,-4.6822720205375e-05,-0.00021157723898144836,1.0215134579416477e-05,0.0,0.0,0.0,0.0,0.0,0.0,0.0,0.0,0.0,1.1637894706472264e-10,3.1322527776939977e-10,1.3087007078685303e-11,0.0,0.0,0.0,0.0,0.0,0.0,0.0,0.0,0.0
1150.552,1150316,1150,552000000,base_footprint,-5.114989446920074e-06,0.0015896443609351124,0.002173484427312473,0.9999963744784713,0.0,0.0,0.0,0.0,0.0,0.0,0.0,0.0,0.0,-4.68227175465794e-05,-0.00021157723905377762,1.0215136642466967e-05,0.0,0.0,0.0,0.0,0.0,0.0,0.0,0.0,0.0,1.1581622448965345e-10,3.114008471071761e-10,1.9310641096776898e-11,0.0,0.0,0.0,0.0,0.0,0.0,0.0,0.0,0.0
1150.552,348213,1778966242,561851268,imu_link,-0.01751449890434742,0.017316311597824097,-0.3715742826461792,-0.9280717968940735,0.0024999999441206455,0.0,0.0,0.0,0.0024999999441206455,0.0,0.0,0.0,0.0024999999441206455,0.0,0.0,0.0,0.019999999552965164,0.0,0.0,0.0,0.019999999552965164,0.0,0.0,0.0,0.019999999552965164,0.5309142470359802,0.22026655077934265,9.59296703338623,0.03999999910593033,0.0,0.0,0.0,0.03999999910593033,0.0,0.0,0.0,0.03999999910593033
1150.553,1150317,1150,553000000,base_footprint,-5.114992562629725e-06,0.0015896443609269444,0.002173486388753524,0.9999963744742081,0.0,0.0,0.0,0.0,0.0,0.0,0.0,0.0,0.0,-4.6822714896479796e-05,-0.00021157723911248576,1.0215138710567622e-05,0.0,0.0,0.0,0.0,0.0,0.0,0.0,0.0,0.0,1.1605281889194724e-10,3.1221648019928044e-10,1.6206723532484937e-11,0.0,0.0,0.0,0.0,0.0,0.0,0.0,0.0,0.0
1150.554,1150318,1150,554000000,base_footprint,-5.114995678334637e-06,0.0015896443609187787,0.0021734883501947134,0.9999963744699448,0.0,0.0,0.0,0.0,0.0,0.0,0.0,0.0,0.0,-4.682271223898487e-05,-0.00021157723917566016,1.0215140805553943e-05,0.0,0.0,0.0,0.0,0.0,0.0,0.0,0.0,0.0,1.1746739883384613e-10,3.1661531890216664e-10,1.7492235935043407e-11,0.0,0.0,0.0,0.0,0.0,0.0,0.0,0.0,0.0
1150.555,1150319,1150,555000000,base_footprint,-5.114998794059804e-06,0.0015896443609106057,0.002173490311636038,0.9999963744656817,0.0,0.0,0.0,0.0,0.0,0.0,0.0,0.0,0.0,-4.6822709631042655e-05,-0.00021157723925796715,1.02151428911536e-05,0.0,0.0,0.0,0.0,0.0,0.0,0.0,0.0,0.0,1.1699046473990477e-10,3.149985638760042e-10,1.689960704682118e-11,0.0,0.0,0.0,0.0,0.0,0.0,0.0,0.0,0.0
1150.556,1150320,1150,556000000,base_footprint,-5.1150019097805385e-06,0.0015896443609024285,0.0021734922730774924,0.9999963744614185,0.0,0.0,0.0,0.0,0.0,0.0,0.0,0.0,0.0,-4.682270697350064e-05,-0.00021157723933360316,1.0215144968781003e-05,0.0,0.0,0.0,0.0,0.0,0.0,0.0,0.0,0.0,1.1657315921617327e-10,3.1377837480261607e-10,1.694668791858795e-11,0.0,0.0,0.0,0.0,0.0,0.0,0.0,0.0,0.0
1150.557,1150321,1150,557000000,base_footprint,-5.115005025495591e-06,0.0015896443608942475,0.0021734942345190754,0.9999963744571554,0.0,0.0,0.0,0.0,0.0,0.0,0.0,0.0,0.0,-4.682270431359574e-05,-0.00021157723940836413,1.0215147042295142e-05,0.0,0.0,0.0,0.0,0.0,0.0,0.0,0.0,0.0,1.1635765621221107e-10,3.131114104207644e-10,1.7022818236454055e-11,0.0,0.0,0.0,0.0,0.0,0.0,0.0,0.0,0.0
1150.558,1150322,1150,558000000,base_footprint,-5.1150081412073375e-06,0.0015896443608860668,0.0021734961959607836,0.9999963744528921,0.0,0.0,0.0,0.0,0.0,0.0,0.0,0.0,0.0,-4.682270165844717e-05,-0.00021157723947450927,1.0215149109603372e-05,0.0,0.0,0.0,0.0,0.0,0.0,0.0,0.0,0.0,1.1602774912799079e-10,3.120926998000237e-10,1.8409820422899294e-11,0.0,0.0,0.0,0.0,0.0,0.0,0.0,0.0,0.0
1150.558,348214,1778966242,568851268,imu_link,-0.01789570041000843,0.017944853752851486,-0.37157174944877625,-0.9280536770820618,0.0024999999441206455,0.0,0.0,0.0,0.0024999999441206455,0.0,0.0,0.0,0.0024999999441206455,0.0,0.0,0.0,0.019999999552965164,0.0,0.0,0.0,0.019999999552965164,0.0,0.0,0.0,0.019999999552965164,0.5033808946609497,0.20051439106464386,9.617507934570312,0.03999999910593033,0.0,0.0,0.0,0.03999999910593033,0.0,0.0,0.0,0.03999999910593033
1150.559,1150323,1150,559000000,base_footprint,-5.115011256916421e-06,0.0015896443608778923,0.0021734981574026155,0.999996374448629,0.0,0.0,0.0,0.0,0.0,0.0,0.0,0.0,0.0,-4.682269900456784e-05,-0.00021157723952970324,1.0215151173189943e-05,0.0,0.0,0.0,0.0,0.0,0.0,0.0,0.0,0.0,1.158138879235975e-10,3.1148335708402473e-10,1.5830387954873998e-11,0.0,0.0,0.0,0.0,0.0,0.0,0.0,0.0,0.0
1150.56,1150324,1150,560000000,base_footprint,-5.115014372622175e-06,0.0015896443608697161,0.002173500118844581,0.9999963744443657,0.0,0.0,0.0,0.0,0.0,0.0,0.0,0.0,0.0,-4.682269634960397e-05,-0.00021157723960017877,1.0215153256801138e-05,0.0,0.0,0.0,0.0,0.0,0.0,0.0,0.0,0.0,1.1687794986707066e-10,3.1475445880849274e-10,1.677581359776316e-11,0.0,0.0,0.0,0.0,0.0,0.0,0.0,0.0,0.0
1150.561,1150325,1150,561000000,base_footprint,-5.115017488339952e-06,0.001589644360861546,0.0021735020802866813,0.9999963744401025,0.0,0.0,0.0,0.0,0.0,0.0,0.0,0.0,0.0,-4.6822693725524644e-05,-0.00021157723965555407,1.0215155344239823e-05,0.0,0.0,0.0,0.0,0.0,0.0,0.0,0.0,0.0,1.1705201171183436e-10,3.153283555603928e-10,1.4468117470358285e-11,0.0,0.0,0.0,0.0,0.0,0.0,0.0,0.0,0.0
1150.562,1150326,1150,562000000,base_footprint,-5.115020604055851e-06,0.0015896443608533792,0.00217350404172891,0.9999963744358392,0.0,0.0,0.0,0.0,0.0,0.0,0.0,0.0,0.0,-4.682269107322012e-05,-0.00021157723971651686,1.021515741740584e-05,0.0,0.0,0.0,0.0,0.0,0.0,0.0,0.0,0.0,1.1632380268531079e-10,3.1304100537737253e-10,1.6561725446968436e-11,0.0,0.0,0.0,0.0,0.0,0.0,0.0,0.0,0.0
1150.563,1150327,1150,563000000,base_footprint,-5.1150237197762535e-06,0.001589644360845214,0.0021735060031712657,0.999996374431576,0.0,0.0,0.0,0.0,0.0,0.0,0.0,0.0,0.0,-4.6822688433667224e-05,-0.00021157723978027876,1.0215159488393756e-05,0.0,0.0,0.0,0.0,0.0,0.0,0.0,0.0,0.0,1.1620830193246006e-10,3.1266714998313874e-10,1.5966835173063606e-11,0.0,0.0,0.0,0.0,0.0,0.0,0.0,0.0,0.0
1150.564,1150328,1150,564000000,base_footprint,-5.115026835489328e-06,0.0015896443608370532,0.0021735079646137603,0.9999963744273129,0.0,0.0,0.0,0.0,0.0,0.0,0.0,0.0,0.0,-4.6822685770901416e-05,-0.0002115772398397501,1.0215161581354289e-05,0.0,0.0,0.0,0.0,0.0,0.0,0.0,0.0,0.0,1.173560409579012e-10,3.162926089538893e-10,1.6644941592567724e-11,0.0,0.0,0.0,0.0,0.0,0.0,0.0,0.0,0.0
1150.564,348215,1778966242,573851268,imu_link,-0.01789570041000843,0.017944853752851486,-0.37157174944877625,-0.9280536770820618,0.0024999999441206455,0.0,0.0,0.0,0.0024999999441206455,0.0,0.0,0.0,0.0024999999441206455,0.0,0.0,0.0,0.019999999552965164,0.0,0.0,0.0,0.019999999552965164,0.0,0.0,0.0,0.019999999552965164,0.5033808946609497,0.20051439106464386,9.617507934570312,0.03999999910593033,0.0,0.0,0.0,0.03999999910593033,0.0,0.0,0.0,0.03999999910593033
1150.565,1150329,1150,565000000,base_footprint,-5.1150299512004665e-06,0.0015896443608288818,0.0021735099260563784,0.9999963744230497,0.0,0.0,0.0,0.0,0.0,0.0,0.0,0.0,0.0,-4.682268311819197e-05,-0.00021157723992706247,1.0215163646462954e-05,0.0,0.0,0.0,0.0,0.0,0.0,0.0,0.0,0.0,1.1593477511650022e-10,3.1172404009224603e-10,1.7872152019872617e-11,0.0,0.0,0.0,0.0,0.0,0.0,0.0,0.0,0.0
1150.566,1150330,1150,566000000,base_footprint,-5.115033066906162e-06,0.0015896443608207152,0.0021735118874991266,0.9999963744187864,0.0,0.0,0.0,0.0,0.0,0.0,0.0,0.0,0.0,-4.682268045904098e-05,-0.0002115772399847998,1.0215165723312314e-05,0.0,0.0,0.0,0.0,0.0,0.0,0.0,0.0,0.0,1.1651456893742639e-10,3.1365961853764605e-10,1.775044346708201e-11,0.0,0.0,0.0,0.0,0.0,0.0,0.0,0.0,0.0
1150.567,1150331,1150,567000000,base_footprint,-5.11503618262635e-06,0.0015896443608125397,0.002173513848942006,0.9999963744145232,0.0,0.0,0.0,0.0,0.0,0.0,0.0,0.0,0.0,-4.682267783945998e-05,-0.00021157724007014625,1.0215167802049755e-05,0.0,0.0,0.0,0.0,0.0,0.0,0.0,0.0,0.0,1.1663138629088564e-10,3.138986793575392e-10,1.551128081447405e-11,0.0,0.0,0.0,0.0,0.0,0.0,0.0,0.0,0.0
1150.568,1150332,1150,568000000,base_footprint,-5.115039298343e-06,0.0015896443608043704,0.0021735158103850173,0.9999963744102599,0.0,0.0,0.0,0.0,0.0,0.0,0.0,0.0,0.0,-4.6822675184087886e-05,-0.00021157724012469927,1.0215169883366468e-05,0.0,0.0,0.0,0.0,0.0,0.0,0.0,0.0,0.0,1.1674341120786892e-10,3.143804265972078e-10,1.7147920871771265e-11,0.0,0.0,0.0,0.0,0.0,0.0,0.0,0.0,0.0
1150.569,1150333,1150,569000000,base_footprint,-5.115042414062476e-06,0.0015896443607962074,0.0021735177718281615,0.9999963744059966,0.0,0.0,0.0,0.0,0.0,0.0,0.0,0.0,0.0,-4.6822672541516334e-05,-0.0002115772401794665,1.0215171965855609e-05,0.0,0.0,0.0,0.0,0.0,0.0,0.0,0.0,0.0,1.1680028584821067e-10,3.145496254698747e-10,1.5987533315630837e-11,0.0,0.0,0.0,0.0,0.0,0.0,0.0,0.0,0.0
1150.57,1150334,1150,570000000,base_footprint,-5.115045529773423e-06,0.0015896443607880434,0.0021735197332714415,0.9999963744017334,0.0,0.0,0.0,0.0,0.0,0.0,0.0,0.0,0.0,-4.6822669876079737e-05,-0.00021157724024875303,1.0215174053784584e-05,0.0,0.0,0.0,0.0,0.0,0.0,0.0,0.0,0.0,1.1710229667728144e-10,3.1547347944527266e-10,1.597887298048862e-11,0.0,0.0,0.0,0.0,0.0,0.0,0.0,0.0,0.0
1150.571,1150335,1150,571000000,base_footprint,-5.115048645483529e-06,0.001589644360779877,0.0021735216947148498,0.9999963743974701,0.0,0.0,0.0,0.0,0.0,0.0,0.0,0.0,0.0,-4.682266722589682e-05,-0.00021157724032120219,1.0215176127398703e-05,0.0,0.0,0.0,0.0,0.0,0.0,0.0,0.0,0.0,1.1636311397040579e-10,3.1311234344856245e-10,1.8265899097720852e-11,0.0,0.0,0.0,0.0,0.0,0.0,0.0,0.0,0.0
1150.571,1150336,1150,572000000,base_footprint,-5.115051761184604e-06,0.0015896443607716947,0.002173523656158395,0.9999963743932069,0.0,0.0,0.0,0.0,0.0,0.0,0.0,0.0,0.0,-4.682266455949249e-05,-0.00021157724042027566,1.0215178218056918e-05,0.0,0.0,0.0,0.0,0.0,0.0,0.0,0.0,0.0,1.1728749385637547e-10,3.159236510911009e-10,2.0394349099601865e-11,0.0,0.0,0.0,0.0,0.0,0.0,0.0,0.0,0.0
1150.571,348216,1778966242,578851268,imu_link,-0.018260501325130463,0.018593784421682358,-0.37156960368156433,-0.9280346632003784,0.0024999999441206455,0.0,0.0,0.0,0.0024999999441206455,0.0,0.0,0.0,0.0024999999441206455,0.0,0.0,0.0,0.019999999552965164,0.0,0.0,0.0,0.019999999552965164,0.0,0.0,0.0,0.019999999552965164,0.5237315893173218,0.20111294090747833,9.598953247070312,0.03999999910593033,0.0,0.0,0.0,0.03999999910593033,0.0,0.0,0.0,0.03999999910593033
1150.573,1150337,1150,573000000,base_footprint,-5.11505487690088e-06,0.0015896443607635222,0.0021735256176020684,0.9999963743889436,0.0,0.0,0.0,0.0,0.0,0.0,0.0,0.0,0.0,-4.682266194158874e-05,-0.00021157724046800834,1.02151802915019e-05,0.0,0.0,0.0,0.0,0.0,0.0,0.0,0.0,0.0,1.1631861418700561e-10,3.130356218566451e-10,1.65711610421614e-11,0.0,0.0,0.0,0.0,0.0,0.0,0.0,0.0,0.0
1150.574,1150338,1150,574000000,base_footprint,-5.115057992617512e-06,0.001589644360755337,0.0021735275790458674,0.9999963743846804,0.0,0.0,0.0,0.0,0.0,0.0,0.0,0.0,0.0,-4.682265929348585e-05,-0.00021157724056087172,1.0215182359126248e-05,0.0,0.0,0.0,0.0,0.0,0.0,0.0,0.0,0.0,1.1606639168608735e-10,3.121313546703653e-10,1.6985901801719076e-11,0.0,0.0,0.0,0.0,0.0,0.0,0.0,0.0,0.0
1150.575,1150339,1150,575000000,base_footprint,-5.1150611083374015e-06,0.0015896443607471549,0.002173529540489794,0.9999963743804171,0.0,0.0,0.0,0.0,0.0,0.0,0.0,0.0,0.0,-4.6822656651579256e-05,-0.000211577240621505,1.0215184431188601e-05,0.0,0.0,0.0,0.0,0.0,0.0,0.0,0.0,0.0,1.16271420991632e-10,3.128489940414316e-10,1.9473019874133445e-11,0.0,0.0,0.0,0.0,0.0,0.0,0.0,0.0,0.0
1150.576,1150340,1150,576000000,base_footprint,-5.11506422405982e-06,0.0015896443607389728,0.002173531501933854,0.9999963743761539,0.0,0.0,0.0,0.0,0.0,0.0,0.0,0.0,0.0,-4.682265400822367e-05,-0.00021157724068867853,1.0215186515345201e-05,0.0,0.0,0.0,0.0,0.0,0.0,0.0,0.0,0.0,1.1688957825477253e-10,3.1482373045292256e-10,1.2836367860775124e-11,0.0,0.0,0.0,0.0,0.0,0.0,0.0,0.0,0.0
1150.577,1150341,1150,577000000,base_footprint,-5.1150673397776615e-06,0.0015896443607307945,0.002173533463378038,0.9999963743718906,0.0,0.0,0.0,0.0,0.0,0.0,0.0,0.0,0.0,-4.682265135048378e-05,-0.00021157724074859376,1.0215188579024781e-05,0.0,0.0,0.0,0.0,0.0,0.0,0.0,0.0,0.0,1.1582575519571427e-10,3.1150158063272525e-10,1.59436563194117e-11,0.0,0.0,0.0,0.0,0.0,0.0,0.0,0.0,0.0
1150.578,1150342,1150,578000000,base_footprint,-5.115070455491225e-06,0.0015896443607226177,0.0021735354248223525,0.9999963743676271,0.0,0.0,0.0,0.0,0.0,0.0,0.0,0.0,0.0,-4.6822648693605295e-05,-0.0002115772408120653,1.0215190658319364e-05,0.0,0.0,0.0,0.0,0.0,0.0,0.0,0.0,0.0,1.16645761520724e-10,3.1405282583945394e-10,1.679691974194292e-11,0.0,0.0,0.0,0.0,0.0,0.0,0.0,0.0,0.0
1150.579,1150343,1150,579000000,base_footprint,-5.11507357120909e-06,0.001589644360714449,0.002173537386266807,0.9999963743633639,0.0,0.0,0.0,0.0,0.0,0.0,0.0,0.0,0.0,-4.682264605420995e-05,-0.0002115772408639277,1.0215192753668686e-05,0.0,0.0,0.0,0.0,0.0,0.0,0.0,0.0,0.0,1.1745906397828406e-10,3.1664639715484376e-10,1.3382735328527574e-11,0.0,0.0,0.0,0.0,0.0,0.0,0.0,0.0,0.0
1150.579,348217,1778966242,583851268,imu_link,-0.018672099336981773,0.019208921119570732,-0.3715657591819763,-0.928015410900116,0.0024999999441206455,0.0,0.0,0.0,0.0024999999441206455,0.0,0.0,0.0,0.0024999999441206455,0.0,0.0,0.0,0.019999999552965164,0.0,0.0,0.0,0.019999999552965164,0.0,0.0,0.0,0.019999999552965164,0.5039794445037842,0.2017114907503128,9.586383819580078,0.03999999910593033,0.0,0.0,0.0,0.03999999910593033,0.0,0.0,0.0,0.03999999910593033
1150.58,1150344,1150,580000000,base_footprint,-5.115076686926844e-06,0.001589644360706287,0.002173539347711394,0.9999963743591006,0.0,0.0,0.0,0.0,0.0,0.0,0.0,0.0,0.0,-4.682264340568245e-05,-0.00021157724091801775,1.0215194835712345e-05,0.0,0.0,0.0,0.0,0.0,0.0,0.0,0.0,0.0,1.1677788172844393e-10,3.14484886451525e-10,1.6010584036929895e-11,0.0,0.0,0.0,0.0,0.0,0.0,0.0,0.0,0.0
1150.581,1150345,1150,581000000,base_footprint,-5.115079802642807e-06,0.00158964436069812,0.0021735413091561132,0.9999963743548373,0.0,0.0,0.0,0.0,0.0,0.0,0.0,0.0,0.0,-4.682264075360902e-05,-0.00021157724099560413,1.0215196917147152e-05,0.0,0.0,0.0,0.0,0.0,0.0,0.0,0.0,0.0,1.1677717675069614e-10,3.1439177305177876e-10,1.8296693915151434e-11,0.0,0.0,0.0,0.0,0.0,0.0,0.0,0.0,0.0
1150.582,1150346,1150,582000000,base_footprint,-5.115082918360221e-06,0.0015896443606899576,0.0021735432706009687,0.9999963743505741,0.0,0.0,0.0,0.0,0.0,0.0,0.0,0.0,0.0,-4.682263810835602e-05,-0.00021157724105323156,1.0215199006093578e-05,0.0,0.0,0.0,0.0,0.0,0.0,0.0,0.0,0.0,1.1713858991509032e-10,3.1561026766307955e-10,1.565648125078669e-11,0.0,0.0,0.0,0.0,0.0,0.0,0.0,0.0,0.0
1150.583,1150347,1150,583000000,base_footprint,-5.115086034079942e-06,0.0015896443606817892,0.002173545232045943,0.9999963743463108,0.0,0.0,0.0,0.0,0.0,0.0,0.0,0.0,0.0,-4.68226354640807e-05,-0.00021157724113242372,1.0215201061304451e-05,0.0,0.0,0.0,0.0,0.0,0.0,0.0,0.0,0.0,1.1540712688907142e-10,3.100973333748003e-10,1.7811535758317366e-11,0.0,0.0,0.0,0.0,0.0,0.0,0.0,0.0,0.0
1150.584,1150348,1150,584000000,base_footprint,-5.115089149788004e-06,0.0015896443606736085,0.0021735471934910423,0.9999963743420474,0.0,0.0,0.0,0.0,0.0,0.0,0.0,0.0,0.0,-4.682263279200943e-05,-0.00021157724122359154,1.0215203128715572e-05,0.0,0.0,0.0,0.0,0.0,0.0,0.0,0.0,0.0,1.160660778106056e-10,3.1213686726364045e-10,2.0234554712018304e-11,0.0,0.0,0.0,0.0,0.0,0.0,0.0,0.0,0.0
1150.585,1150349,1150,585000000,base_footprint,-5.11509226550455e-06,0.001589644360665435,0.002173549154936276,0.999996374337784,0.0,0.0,0.0,0.0,0.0,0.0,0.0,0.0,0.0,-4.682263016093107e-05,-0.00021157724127712963,1.0215205213361987e-05,0.0,0.0,0.0,0.0,0.0,0.0,0.0,0.0,0.0,1.169064423852402e-10,3.148891956241111e-10,1.5687325200797948e-11,0.0,0.0,0.0,0.0,0.0,0.0,0.0,0.0,0.0
1150.586,1150350,1150,586000000,base_footprint,-5.1150953812240915e-06,0.001589644360657267,0.0021735511163816384,0.9999963743335208,0.0,0.0,0.0,0.0,0.0,0.0,0.0,0.0,0.0,-4.682262751840843e-05,-0.0002115772413348114,1.0215207286953396e-05,0.0,0.0,0.0,0.0,0.0,0.0,0.0,0.0,0.0,1.1633107017712507e-10,3.1309636302970683e-10,1.357252047359355e-11,0.0,0.0,0.0,0.0,0.0,0.0,0.0,0.0,0.0
1150.587,1150351,1150,587000000,base_footprint,-5.115098496944892e-06,0.0015896443606490882,0.0021735530778271314,0.9999963743292575,0.0,0.0,0.0,0.0,0.0,0.0,0.0,0.0,0.0,-4.682262487241888e-05,-0.00021157724142283174,1.021520936596841e-05,0.0,0.0,0.0,0.0,0.0,0.0,0.0,0.0,0.0,1.1667142196473874e-10,3.139861446256337e-10,2.1606201452835236e-11,0.0,0.0,0.0,0.0,0.0,0.0,0.0,0.0,0.0
1150.588,1150352,1150,588000000,base_footprint,-5.115101612667837e-06,0.001589644360640908,0.002173555039272753,0.9999963743249941,0.0,0.0,0.0,0.0,0.0,0.0,0.0,0.0,0.0,-4.6822622228155556e-05,-0.00021157724149234726,1.0215211440123185e-05,0.0,0.0,0.0,0.0,0.0,0.0,0.0,0.0,0.0,1.1638285272968434e-10,3.1319245388088683e-10,1.6987696383920697e-11,0.0,0.0,0.0,0.0,0.0,0.0,0.0,0.0,0.0
1150.589,1150353,1150,589000000,base_footprint,-5.1151047283795535e-06,0.001589644360632734,0.0021735570007185125,0.9999963743207307,0.0,0.0,0.0,0.0,0.0,0.0,0.0,0.0,0.0,-4.682261955757361e-05,-0.00021157724154747195,1.0215213531994674e-05,0.0,0.0,0.0,0.0,0.0,0.0,0.0,0.0,0.0,1.1728290008023699e-10,3.161273346206469e-10,1.2620008519292824e-11,0.0,0.0,0.0,0.0,0.0,0.0,0.0,0.0,0.0
1150.59,1150354,1150,590000000,base_footprint,-5.115107844101147e-06,0.001589644360624561,0.0021735589621643962,0.9999963743164676,0.0,0.0,0.0,0.0,0.0,0.0,0.0,0.0,0.0,-4.68226169286616e-05,-0.00021157724161412764,1.0215215596281369e-05,0.0,0.0,0.0,0.0,0.0,0.0,0.0,0.0,0.0,1.1587107665088112e-10,3.115524770230579e-10,1.8975206625688072e-11,0.0,0.0,0.0,0.0,0.0,0.0,0.0,0.0,0.0
1150.591,1150355,1150,591000000,base_footprint,-5.1151109598258436e-06,0.0015896443606163867,0.0021735609236104084,0.9999963743122042,0.0,0.0,0.0,0.0,0.0,0.0,0.0,0.0,0.0,-4.6822614286371424e-05,-0.00021157724168266277,1.0215217671041305e-05,0.0,0.0,0.0,0.0,0.0,0.0,0.0,0.0,0.0,1.1639882547364015e-10,3.1329080293572387e-10,1.2870182385940108e-11,0.0,0.0,0.0,0.0,0.0,0.0,0.0,0.0,0.0
1150.592,1150356,1150,592000000,base_footprint,-5.1151140755460405e-06,0.0015896443606082254,0.0021735628850565554,0.9999963743079409,0.0,0.0,0.0,0.0,0.0,0.0,0.0,0.0,0.0,-4.682261162929122e-05,-0.00021157724172383874,1.0215219757573017e-05,0.0,0.0,0.0,0.0,0.0,0.0,0.0,0.0,0.0,1.1700054200886045e-10,3.1523478834441283e-10,1.660034305113591e-11,0.0,0.0,0.0,0.0,0.0,0.0,0.0,0.0,0.0
1150.593,1150357,1150,593000000,base_footprint,-5.115117191266094e-06,0.001589644360600055,0.0021735648465028372,0.9999963743036775,0.0,0.0,0.0,0.0,0.0,0.0,0.0,0.0,0.0,-4.682260898051507e-05,-0.00021157724180940975,1.021522184395981e-05,0.0,0.0,0.0,0.0,0.0,0.0,0.0,0.0,0.0,1.1704399487208872e-10,3.151918455487217e-10,1.805044179414385e-11,0.0,0.0,0.0,0.0,0.0,0.0,0.0,0.0,0.0
1150.594,1150358,1150,594000000,base_footprint,-5.115120306982614e-06,0.0015896443605918971,0.0021735668079492392,0.9999963742994141,0.0,0.0,0.0,0.0,0.0,0.0,0.0,0.0,0.0,-4.6822606324820856e-05,-0.00021157724185185778,1.021522390084216e-05,0.0,0.0,0.0,0.0,0.0,0.0,0.0,0.0,0.0,1.1544886949550701e-10,3.103908232394534e-10,1.4997797801455336e-11,0.0,0.0,0.0,0.0,0.0,0.0,0.0,0.0,0.0
1150.595,1150359,1150,595000000,base_footprint,-5.1151234226983516e-06,0.0015896443605837298,0.002173568769395769,0.9999963742951508,0.0,0.0,0.0,0.0,0.0,0.0,0.0,0.0,0.0,-4.682260367466393e-05,-0.00021157724193765907,1.021522597377863e-05,0.0,0.0,0.0,0.0,0.0,0.0,0.0,0.0,0.0,1.1633660164158065e-10,3.1300385195399183e-10,1.719226721065584e-11,0.0,0.0,0.0,0.0,0.0,0.0,0.0,0.0,0.0
1150.596,1150360,1150,596000000,base_footprint,-5.115126538415968e-06,0.001589644360575553,0.0021735707308424357,0.9999963742908874,0.0,0.0,0.0,0.0,0.0,0.0,0.0,0.0,0.0,-4.682260103020619e-05,-0.00021157724202413073,1.021522806388739e-05,0.0,0.0,0.0,0.0,0.0,0.0,0.0,0.0,0.0,1.1724016044886557e-10,3.1579852464102644e-10,1.9410129179515325e-11,0.0,0.0,0.0,0.0,0.0,0.0,0.0,0.0,0.0
1150.597,1150361,1150,597000000,base_footprint,-5.115129654129596e-06,0.0015896443605673714,0.0021735726922892337,0.999996374286624,0.0,0.0,0.0,0.0,0.0,0.0,0.0,0.0,0.0,-4.682259837367522e-05,-0.00021157724210093358,1.0215230143702606e-05,0.0,0.0,0.0,0.0,0.0,0.0,0.0,0.0,0.0,1.1669108785240665e-10,3.1413391499333794e-10,1.7820740537488314e-11,0.0,0.0,0.0,0.0,0.0,0.0,0.0,0.0,0.0
1150.598,1150362,1150,598000000,base_footprint,-5.115132769857327e-06,0.0015896443605591948,0.002173574653736157,0.9999963742823607,0.0,0.0,0.0,0.0,0.0,0.0,0.0,0.0,0.0,-4.682259575338858e-05,-0.00021157724215812549,1.021523221090012e-05,0.0,0.0,0.0,0.0,0.0,0.0,0.0,0.0,0.0,1.1599877228778083e-10,3.120188553069639e-10,1.5438269891608666e-11,0.0,0.0,0.0,0.0,0.0,0.0,0.0,0.0,0.0
1150.599,1150363,1150,599000000,base_footprint,-5.115135885574744e-06,0.0015896443605510177,0.002173576615183211,0.9999963742780973,0.0,0.0,0.0,0.0,0.0,0.0,0.0,0.0,0.0,-4.6822593084288095e-05,-0.00021157724222651994,1.0215234289678895e-05,0.0,0.0,0.0,0.0,0.0,0.0,0.0,0.0,0.0,1.1663017809790437e-10,3.139862231070599e-10,1.8038252581102577e-11,0.0,0.0,0.0,0.0,0.0,0.0,0.0,0.0,0.0
1150.6,1150364,1150,600000000,base_footprint,-5.115139001302272e-06,0.0015896443605428428,0.002173578576630395,0.9999963742738339,0.0,0.0,0.0,0.0,0.0,0.0,0.0,0.0,0.0,-4.6822590456084356e-05,-0.00021157724228945514,1.0215236365964444e-05,0.0,0.0,0.0,0.0,0.0,0.0,0.0,0.0,0.0,1.1648055779850298e-10,3.1351415074704513e-10,1.54054195832678e-11,0.0,0.0,0.0,0.0,0.0,0.0,0.0,0.0,0.0
1150.601,1150365,1150,601000000,base_footprint,-5.1151421170297865e-06,0.0015896443605346758,0.0021735805380777187,0.9999963742695706,0.0,0.0,0.0,0.0,0.0,0.0,0.0,0.0,0.0,-4.682258780796831e-05,-0.0002115772423412114,1.0215238461910669e-05,0.0,0.0,0.0,0.0,0.0,0.0,0.0,0.0,0.0,1.1749212099505398e-10,3.167562297067789e-10,1.3442998296195462e-11,0.0,0.0,0.0,0.0,0.0,0.0,0.0,0.0,0.0
1150.602,1150366,1150,602000000,base_footprint,-5.115145232749664e-06,0.0015896443605265033,0.002173582499525165,0.9999963742653072,0.0,0.0,0.0,0.0,0.0,0.0,0.0,0.0,0.0,-4.682258514381817e-05,-0.00021157724241927556,1.0215240523582733e-05,0.0,0.0,0.0,0.0,0.0,0.0,0.0,0.0,0.0,1.1575323442357127e-10,3.1118010819665985e-10,1.9527815229233337e-11,0.0,0.0,0.0,0.0,0.0,0.0,0.0,0.0,0.0
1150.603,1150367,1150,603000000,base_footprint,-5.115148348461786e-06,0.0015896443605183312,0.0021735844609727345,0.9999963742610438,0.0,0.0,0.0,0.0,0.0,0.0,0.0,0.0,0.0,-4.682258247982195e-05,-0.00021157724248525278,1.0215242587244146e-05,0.0,0.0,0.0,0.0,0.0,0.0,0.0,0.0,0.0,1.158366397286366e-10,3.1151429996588146e-10,1.8360957224225802e-11,0.0,0.0,0.0,0.0,0.0,0.0,0.0,0.0,0.0
1150.604,1150368,1150,604000000,base_footprint,-5.115151464179138e-06,0.0015896443605101641,0.002173586422420447,0.9999963742567805,0.0,0.0,0.0,0.0,0.0,0.0,0.0,0.0,0.0,-4.682257984241944e-05,-0.00021157724254294508,1.0215244689737601e-05,0.0,0.0,0.0,0.0,0.0,0.0,0.0,0.0,0.0,1.1783686928149008e-10,3.178123589319547e-10,1.3561865265662446e-11,0.0,0.0,0.0,0.0,0.0,0.0,0.0,0.0,0.0
1150.605,1150369,1150,605000000,base_footprint,-5.115154579906754e-06,0.0015896443605019931,0.0021735883838682837,0.9999963742525169,0.0,0.0,0.0,0.0,0.0,0.0,0.0,0.0,0.0,-4.6822577214145255e-05,-0.00021157724261736764,1.0215246755645798e-05,0.0,0.0,0.0,0.0,0.0,0.0,0.0,0.0,0.0,1.1596163561129309e-10,3.11814526931501e-10,1.816864314383031e-11,0.0,0.0,0.0,0.0,0.0,0.0,0.0,0.0,0.0
1150.605,348218,1778966242,592851268,imu_link,-0.018672099336981773,0.019208921119570732,-0.3715657591819763,-0.928015410900116,0.0024999999441206455,0.0,0.0,0.0,0.0024999999441206455,0.0,0.0,0.0,0.0024999999441206455,0.0,0.0,0.0,0.019999999552965164,0.0,0.0,0.0,0.019999999552965164,0.0,0.0,0.0,0.019999999552965164,0.5039794445037842,0.2017114907503128,9.586383819580078,0.03999999910593033,0.0,0.0,0.0,0.03999999910593033,0.0,0.0,0.0,0.03999999910593033
1150.606,1150370,1150,606000000,base_footprint,-5.115157695635621e-06,0.0015896443604938258,0.0021735903453162456,0.9999963742482535,0.0,0.0,0.0,0.0,0.0,0.0,0.0,0.0,0.0,-4.6822574568035145e-05,-0.00021157724267774377,1.0215248822490506e-05,0.0,0.0,0.0,0.0,0.0,0.0,0.0,0.0,0.0,1.1598750768406489e-10,3.12002778799488e-10,1.565615714813336e-11,0.0,0.0,0.0,0.0,0.0,0.0,0.0,0.0,0.0
1150.607,1150371,1150,607000000,base_footprint,-5.115160811359798e-06,0.0015896443604856605,0.002173592306764341,0.9999963742439901,0.0,0.0,0.0,0.0,0.0,0.0,0.0,0.0,0.0,-4.682257191036197e-05,-0.00021157724274105676,1.0215250906155298e-05,0.0,0.0,0.0,0.0,0.0,0.0,0.0,0.0,0.0,1.1687636040525076e-10,3.1476691280088223e-10,1.750523250407089e-11,0.0,0.0,0.0,0.0,0.0,0.0,0.0,0.0,0.0
1150.608,1150372,1150,608000000,base_footprint,-5.115163927074994e-06,0.0015896443604774954,0.002173594268212575,0.9999963742397268,0.0,0.0,0.0,0.0,0.0,0.0,0.0,0.0,0.0,-4.682256924419432e-05,-0.00021157724280812147,1.0215253000105806e-05,0.0,0.0,0.0,0.0,0.0,0.0,0.0,0.0,0.0,1.174167600054473e-10,3.1645804535649576e-10,1.675078104973158e-11,0.0,0.0,0.0,0.0,0.0,0.0,0.0,0.0,0.0
1150.609,1150373,1150,609000000,base_footprint,-5.115167042797617e-06,0.001589644360469329,0.0021735962296609342,0.9999963742354634,0.0,0.0,0.0,0.0,0.0,0.0,0.0,0.0,0.0,-4.682256661045165e-05,-0.00021157724287801827,1.0215255067493939e-05,0.0,0.0,0.0,0.0,0.0,0.0,0.0,0.0,0.0,1.1603012725019864e-10,3.120673271869691e-10,1.6982982276307126e-11,0.0,0.0,0.0,0.0,0.0,0.0,0.0,0.0,0.0
1150.61,1150374,1150,610000000,base_footprint,-5.115170158520165e-06,0.001589644360461154,0.002173598191109428,0.9999963742311999,0.0,0.0,0.0,0.0,0.0,0.0,0.0,0.0,0.0,-4.682256396188192e-05,-0.00021157724296183976,1.021525715266726e-05,0.0,0.0,0.0,0.0,0.0,0.0,0.0,0.0,0.0,1.1697515284160428e-10,3.150008987391663e-10,1.8029833528421172e-11,0.0,0.0,0.0,0.0,0.0,0.0,0.0,0.0,0.0
1150.611,1150375,1150,611000000,base_footprint,-5.115173274240993e-06,0.0015896443604529768,0.002173600152558051,0.9999963742269364,0.0,0.0,0.0,0.0,0.0,0.0,0.0,0.0,0.0,-4.682256130993148e-05,-0.00021157724303387255,1.0215259230177803e-05,0.0,0.0,0.0,0.0,0.0,0.0,0.0,0.0,0.0,1.1656726006566262e-10,3.1375018249599956e-10,1.8422062829271005e-11,0.0,0.0,0.0,0.0,0.0,0.0,0.0,0.0,0.0
1150.612,1150376,1150,612000000,base_footprint,-5.115176389964817e-06,0.0015896443604447943,0.002173602114006803,0.999996374222673,0.0,0.0,0.0,0.0,0.0,0.0,0.0,0.0,0.0,-4.682255866735008e-05,-0.00021157724311205348,1.0215261302646294e-05,0.0,0.0,0.0,0.0,0.0,0.0,0.0,0.0,0.0,1.1630312624292485e-10,3.1291425042194656e-10,1.692945475202742e-11,0.0,0.0,0.0,0.0,0.0,0.0,0.0,0.0,0.0
1150.613,1150377,1150,613000000,base_footprint,-5.115179505696177e-06,0.001589644360436621,0.002173604075455677,0.9999963742184097,0.0,0.0,0.0,0.0,0.0,0.0,0.0,0.0,0.0,-4.682255603384365e-05,-0.00021157724316185362,1.021526336344555e-05,0.0,0.0,0.0,0.0,0.0,0.0,0.0,0.0,0.0,1.156617007559833e-10,3.109958823673678e-10,1.637552488331527e-11,0.0,0.0,0.0,0.0,0.0,0.0,0.0,0.0,0.0
1150.614,1150378,1150,614000000,base_footprint,-5.11518262140994e-06,0.0015896443604284396,0.0021736060369046896,0.9999963742141462,0.0,0.0,0.0,0.0,0.0,0.0,0.0,0.0,0.0,-4.682255335041367e-05,-0.00021157724324445454,1.0215265458600493e-05,0.0,0.0,0.0,0.0,0.0,0.0,0.0,0.0,0.0,1.1749831725555012e-10,3.166844682215553e-10,1.7333909661096208e-11,0.0,0.0,0.0,0.0,0.0,0.0,0.0,0.0,0.0
1150.615,1150379,1150,615000000,base_footprint,-5.115185737131193e-06,0.0015896443604202731,0.0021736079983538346,0.9999963742098827,0.0,0.0,0.0,0.0,0.0,0.0,0.0,0.0,0.0,-4.682255071726165e-05,-0.00021157724328174762,1.0215267540058473e-05,0.0,0.0,0.0,0.0,0.0,0.0,0.0,0.0,0.0,1.1671980397342672e-10,3.143669529304604e-10,1.3691257373290172e-11,0.0,0.0,0.0,0.0,0.0,0.0,0.0,0.0,0.0
1150.616,1150380,1150,616000000,base_footprint,-5.115188852864977e-06,0.0015896443604121076,0.0021736099598031076,0.9999963742056193,0.0,0.0,0.0,0.0,0.0,0.0,0.0,0.0,0.0,-4.6822548093777714e-05,-0.0002115772433471435,1.0215269612139971e-05,0.0,0.0,0.0,0.0,0.0,0.0,0.0,0.0,0.0,1.1625375355721204e-10,3.128191260298792e-10,1.2392021352101101e-11,0.0,0.0,0.0,0.0,0.0,0.0,0.0,0.0,0.0
1150.616,348219,1778966242,595851268,imu_link,-0.01963585615158081,0.01987401396036148,-0.3715483844280243,-0.9279884696006775,0.0024999999441206455,0.0,0.0,0.0,0.0024999999441206455,0.0,0.0,0.0,0.0024999999441206455,0.0,0.0,0.0,0.019999999552965164,0.0,0.0,0.0,0.019999999552965164,0.0,0.0,0.0,0.019999999552965164,0.5027823448181152,0.21368250250816345,9.593565940856934,0.03999999910593033,0.0,0.0,0.0,0.03999999910593033,0.0,0.0,0.0,0.03999999910593033
1150.617,1150381,1150,617000000,base_footprint,-5.115191968593047e-06,0.0015896443604039381,0.002173611921252512,0.9999963742013558,0.0,0.0,0.0,0.0,0.0,0.0,0.0,0.0,0.0,-4.682254543383823e-05,-0.0002115772434224574,1.0215271691899018e-05,0.0,0.0,0.0,0.0,0.0,0.0,0.0,0.0,0.0,1.166897406308502e-10,3.141318453069133e-10,1.8917312397287003e-11,0.0,0.0,0.0,0.0,0.0,0.0,0.0,0.0,0.0
1150.618,1150382,1150,618000000,base_footprint,-5.115195084310527e-06,0.0015896443603957754,0.0021736138827020447,0.9999963741970924,0.0,0.0,0.0,0.0,0.0,0.0,0.0,0.0,0.0,-4.6822542764231766e-05,-0.00021157724347671826,1.0215273764453704e-05,0.0,0.0,0.0,0.0,0.0,0.0,0.0,0.0,0.0,1.1628986559186347e-10,3.1297145706533405e-10,1.778002970516035e-11,0.0,0.0,0.0,0.0,0.0,0.0,0.0,0.0,0.0
1150.619,1150383,1150,619000000,base_footprint,-5.1151982000304e-06,0.0015896443603876022,0.0021736158441517097,0.9999963741928288,0.0,0.0,0.0,0.0,0.0,0.0,0.0,0.0,0.0,-4.682254012061817e-05,-0.0002115772435639879,1.0215275847862533e-05,0.0,0.0,0.0,0.0,0.0,0.0,0.0,0.0,0.0,1.1688872310411336e-10,3.147021794826402e-10,1.8548357878448654e-11,0.0,0.0,0.0,0.0,0.0,0.0,0.0,0.0,0.0
1150.62,1150384,1150,620000000,base_footprint,-5.11520131575134e-06,0.001589644360379431,0.002173617805601505,0.9999963741885656,0.0,0.0,0.0,0.0,0.0,0.0,0.0,0.0,0.0,-4.682253747428434e-05,-0.00021157724362868804,1.0215277922795596e-05,0.0,0.0,0.0,0.0,0.0,0.0,0.0,0.0,0.0,1.1641549723384257e-10,3.133233420069117e-10,1.6024014231729618e-11,0.0,0.0,0.0,0.0,0.0,0.0,0.0,0.0,0.0
1150.621,1150385,1150,621000000,base_footprint,-5.115204431483063e-06,0.0015896443603712492,0.002173619767051428,0.9999963741843021,0.0,0.0,0.0,0.0,0.0,0.0,0.0,0.0,0.0,-4.6822534847233336e-05,-0.00021157724371648066,1.0215279996295516e-05,0.0,0.0,0.0,0.0,0.0,0.0,0.0,0.0,0.0,1.1636354407159897e-10,3.130574756845229e-10,1.655776319776342e-11,0.0,0.0,0.0,0.0,0.0,0.0,0.0,0.0,0.0
1150.622,1150386,1150,622000000,base_footprint,-5.115207547208392e-06,0.001589644360363076,0.0021736217285014837,0.9999963741800386,0.0,0.0,0.0,0.0,0.0,0.0,0.0,0.0,0.0,-4.682253218615072e-05,-0.00021157724376596456,1.0215282079058485e-05,0.0,0.0,0.0,0.0,0.0,0.0,0.0,0.0,0.0,1.168135994054781e-10,3.1462544521569185e-10,1.6874411998336184e-11,0.0,0.0,0.0,0.0,0.0,0.0,0.0,0.0,0.0
1150.623,1150387,1150,623000000,base_footprint,-5.115210662924352e-06,0.001589644360354897,0.0021736236899516713,0.9999963741757751,0.0,0.0,0.0,0.0,0.0,0.0,0.0,0.0,0.0,-4.682252951890521e-05,-0.00021157724384507926,1.021528415892476e-05,0.0,0.0,0.0,0.0,0.0,0.0,0.0,0.0,0.0,1.166909457002793e-10,3.1416013535358043e-10,1.5909438202570685e-11,0.0,0.0,0.0,0.0,0.0,0.0,0.0,0.0,0.0
1150.624,1150388,1150,624000000,base_footprint,-5.115213778648564e-06,0.0015896443603467254,0.002173625651401989,0.9999963741715117,0.0,0.0,0.0,0.0,0.0,0.0,0.0,0.0,0.0,-4.682252688719636e-05,-0.00021157724389754158,1.0215286236391028e-05,0.0,0.0,0.0,0.0,0.0,0.0,0.0,0.0,0.0,1.1653799184731546e-10,3.1371405713350664e-10,1.749907561122462e-11,0.0,0.0,0.0,0.0,0.0,0.0,0.0,0.0,0.0
1150.625,1150389,1150,625000000,base_footprint,-5.115216894386054e-06,0.0015896443603385503,0.0021736276128524394,0.9999963741672482,0.0,0.0,0.0,0.0,0.0,0.0,0.0,0.0,0.0,-4.68225242653153e-05,-0.0002115772439721214,1.0215288318907756e-05,0.0,0.0,0.0,0.0,0.0,0.0,0.0,0.0,0.0,1.1682104296357803e-10,3.145207582113009e-10,1.6676129194170066e-11,0.0,0.0,0.0,0.0,0.0,0.0,0.0,0.0,0.0
1150.626,1150390,1150,626000000,base_footprint,-5.115220010115212e-06,0.0015896443603303717,0.002173629574303021,0.9999963741629847,0.0,0.0,0.0,0.0,0.0,0.0,0.0,0.0,0.0,-4.682252160007007e-05,-0.00021157724404642915,1.0215290398020903e-05,0.0,0.0,0.0,0.0,0.0,0.0,0.0,0.0,0.0,1.1665008947336656e-10,3.140339985689749e-10,1.7038176201421882e-11,0.0,0.0,0.0,0.0,0.0,0.0,0.0,0.0,0.0
1150.627,1150391,1150,627000000,base_footprint,-5.11522312584068e-06,0.001589644360322192,0.002173631535753726,0.9999963741587212,0.0,0.0,0.0,0.0,0.0,0.0,0.0,0.0,0.0,-4.682251894401793e-05,-0.00021157724411559475,1.0215292461125348e-05,0.0,0.0,0.0,0.0,0.0,0.0,0.0,0.0,0.0,1.158092078531419e-10,3.1140606276620373e-10,1.7542028963178973e-11,0.0,0.0,0.0,0.0,0.0,0.0,0.0,0.0,0.0
1150.628,1150392,1150,628000000,base_footprint,-5.115226241576249e-06,0.001589644360314018,0.0021736334972045656,0.9999963741544577,0.0,0.0,0.0,0.0,0.0,0.0,0.0,0.0,0.0,-4.682251631603973e-05,-0.00021157724417167012,1.0215294547050415e-05,0.0,0.0,0.0,0.0,0.0,0.0,0.0,0.0,0.0,1.1697285913928648e-10,3.150908280501671e-10,1.4634927550677107e-11,0.0,0.0,0.0,0.0,0.0,0.0,0.0,0.0,0.0
1150.629,1150393,1150,629000000,base_footprint,-5.115229357303089e-06,0.0015896443603058527,0.0021736354586555325,0.9999963741501943,0.0,0.0,0.0,0.0,0.0,0.0,0.0,0.0,0.0,-4.682251365004968e-05,-0.00021157724422141003,1.0215296618292638e-05,0.0,0.0,0.0,0.0,0.0,0.0,0.0,0.0,0.0,1.1621157391384265e-10,3.127494753877385e-10,1.6018180667542867e-11,0.0,0.0,0.0,0.0,0.0,0.0,0.0,0.0,0.0
1150.63,1150394,1150,630000000,base_footprint,-5.11523247302595e-06,0.001589644360297688,0.0021736374201066335,0.9999963741459307,0.0,0.0,0.0,0.0,0.0,0.0,0.0,0.0,0.0,-4.682251099391075e-05,-0.00021157724428715925,1.021529870351291e-05,0.0,0.0,0.0,0.0,0.0,0.0,0.0,0.0,0.0,1.1695772231707693e-10,3.1501839890685236e-10,1.6865957766488876e-11,0.0,0.0,0.0,0.0,0.0,0.0,0.0,0.0,0.0
1150.631,1150395,1150,631000000,base_footprint,-5.115235588749019e-06,0.0015896443602895223,0.0021736393815578628,0.9999963741416671,0.0,0.0,0.0,0.0,0.0,0.0,0.0,0.0,0.0,-4.682250834572596e-05,-0.00021157724435656196,1.0215300777248815e-05,0.0,0.0,0.0,0.0,0.0,0.0,0.0,0.0,0.0,1.1635467786001508e-10,3.1312892514382314e-10,1.4721833545764656e-11,0.0,0.0,0.0,0.0,0.0,0.0,0.0,0.0,0.0
1150.632,1150396,1150,632000000,base_footprint,-5.115238704472304e-06,0.0015896443602813602,0.00217364134300922,0.9999963741374036,0.0,0.0,0.0,0.0,0.0,0.0,0.0,0.0,0.0,-4.6822505697796504e-05,-0.00021157724441702935,1.0215302849094735e-05,0.0,0.0,0.0,0.0,0.0,0.0,0.0,0.0,0.0,1.1625684713007219e-10,3.128218716799041e-10,1.809914496207533e-11,0.0,0.0,0.0,0.0,0.0,0.0,0.0,0.0,0.0
1150.633,1150397,1150,633000000,base_footprint,-5.115241820193249e-06,0.0015896443602731853,0.002173643304460713,0.9999963741331401,0.0,0.0,0.0,0.0,0.0,0.0,0.0,0.0,0.0,-4.682250304464667e-05,-0.00021157724450982643,1.0215304937962191e-05,0.0,0.0,0.0,0.0,0.0,0.0,0.0,0.0,0.0,1.17178555399365e-10,3.1560866709853256e-10,1.7942751446077876e-11,0.0,0.0,0.0,0.0,0.0,0.0,0.0,0.0,0.0
1150.634,1150398,1150,634000000,base_footprint,-5.11524493591942e-06,0.001589644360265007,0.002173645265912334,0.9999963741288767,0.0,0.0,0.0,0.0,0.0,0.0,0.0,0.0,0.0,-4.6822500406559803e-05,-0.000211577244584207,1.0215307010541897e-05,0.0,0.0,0.0,0.0,0.0,0.0,0.0,0.0,0.0,1.1631450332234858e-10,3.1292432723265764e-10,1.995441188251939e-11,0.0,0.0,0.0,0.0,0.0,0.0,0.0,0.0,0.0
1150.635,1150399,1150,635000000,base_footprint,-5.115248051645275e-06,0.0015896443602568286,0.0021736472273640884,0.9999963741246132,0.0,0.0,0.0,0.0,0.0,0.0,0.0,0.0,0.0,-4.682249775752745e-05,-0.0002115772446513289,1.021530909422005e-05,0.0,0.0,0.0,0.0,0.0,0.0,0.0,0.0,0.0,1.168778767585495e-10,3.147554616924608e-10,1.697682561794498e-11,0.0,0.0,0.0,0.0,0.0,0.0,0.0,0.0,0.0
1150.636,1150400,1150,636000000,base_footprint,-5.115251167375522e-06,0.001589644360248651,0.0021736491888159734,0.9999963741203495,0.0,0.0,0.0,0.0,0.0,0.0,0.0,0.0,0.0,-4.682249511792341e-05,-0.00021157724471587542,1.0215311172971001e-05,0.0,0.0,0.0,0.0,0.0,0.0,0.0,0.0,0.0,1.166137181630415e-10,3.139350571972842e-10,1.5878624987900056e-11,0.0,0.0,0.0,0.0,0.0,0.0,0.0,0.0,0.0
1150.637,1150401,1150,637000000,base_footprint,-5.115254283114611e-06,0.0015896443602404782,0.0021736511502679825,0.999996374116086,0.0,0.0,0.0,0.0,0.0,0.0,0.0,0.0,0.0,-4.682249248701683e-05,-0.00021157724477484157,1.021531323762276e-05,0.0,0.0,0.0,0.0,0.0,0.0,0.0,0.0,0.0,1.1586988012983117e-10,3.116191788662797e-10,1.5598972922994307e-11,0.0,0.0,0.0,0.0,0.0,0.0,0.0,0.0,0.0
1150.638,1150402,1150,638000000,base_footprint,-5.115257398846893e-06,0.001589644360232299,0.002173653111720129,0.9999963741118225,0.0,0.0,0.0,0.0,0.0,0.0,0.0,0.0,0.0,-4.6822489825044546e-05,-0.00021157724485510766,1.0215315328999274e-05,0.0,0.0,0.0,0.0,0.0,0.0,0.0,0.0,0.0,1.172931923963613e-10,3.160318279540828e-10,1.630522615620777e-11,0.0,0.0,0.0,0.0,0.0,0.0,0.0,0.0,0.0
1150.639,1150403,1150,639000000,base_footprint,-5.1152605145696895e-06,0.001589644360224124,0.002173655073172403,0.9999963741075589,0.0,0.0,0.0,0.0,0.0,0.0,0.0,0.0,0.0,-4.682248715758886e-05,-0.0002115772449134073,1.0215317400889398e-05,0.0,0.0,0.0,0.0,0.0,0.0,0.0,0.0,0.0,1.1625645289858079e-10,3.128580307870983e-10,1.6809609315884694e-11,0.0,0.0,0.0,0.0,0.0,0.0,0.0,0.0,0.0
1150.64,1150404,1150,640000000,base_footprint,-5.115263630309376e-06,0.00158964436021595,0.0021736570346248037,0.9999963741032953,0.0,0.0,0.0,0.0,0.0,0.0,0.0,0.0,0.0,-4.682248454288041e-05,-0.00021157724497910404,1.021531947074188e-05,0.0,0.0,0.0,0.0,0.0,0.0,0.0,0.0,0.0,1.1614525920784053e-10,3.124427895030314e-10,1.5401672292853485e-11,0.0,0.0,0.0,0.0,0.0,0.0,0.0,0.0,0.0
1150.641,1150405,1150,641000000,base_footprint,-5.1152667460350064e-06,0.0015896443602077814,0.0021736589960773315,0.999996374099032,0.0,0.0,0.0,0.0,0.0,0.0,0.0,0.0,0.0,-4.682248186621074e-05,-0.000211577245036279,1.0215321540890843e-05,0.0,0.0,0.0,0.0,0.0,0.0,0.0,0.0,0.0,1.1616812315786227e-10,3.125908577249247e-10,1.7946781303352098e-11,0.0,0.0,0.0,0.0,0.0,0.0,0.0,0.0,0.0
1150.642,1150406,1150,642000000,base_footprint,-5.115269861760479e-06,0.0015896443601996037,0.002173660957529994,0.9999963740947684,0.0,0.0,0.0,0.0,0.0,0.0,0.0,0.0,0.0,-4.682247921754484e-05,-0.00021157724512085407,1.0215323628538777e-05,0.0,0.0,0.0,0.0,0.0,0.0,0.0,0.0,0.0,1.1709889167848471e-10,3.1540174321951005e-10,1.561747090837801e-11,0.0,0.0,0.0,0.0,0.0,0.0,0.0,0.0,0.0
1150.642,348220,1778966242,652851268,imu_link,-0.01470633503049612,0.021883541718125343,-0.37169188261032104,-0.9279770255088806,0.0024999999441206455,0.0,0.0,0.0,0.0024999999441206455,0.0,0.0,0.0,0.0024999999441206455,0.0,0.0,0.0,0.019999999552965164,0.0,0.0,0.0,0.019999999552965164,0.0,0.0,0.0,0.019999999552965164,0.4926069974899292,0.181959331035614,9.551667213439941,0.03999999910593033,0.0,0.0,0.0,0.03999999910593033,0.0,0.0,0.0,0.03999999910593033
1150.643,1150407,1150,643000000,base_footprint,-5.115272977486208e-06,0.0015896443601914338,0.002173662918982794,0.9999963740905048,0.0,0.0,0.0,0.0,0.0,0.0,0.0,0.0,0.0,-4.682247656994544e-05,-0.00021157724517260377,1.0215325720136956e-05,0.0,0.0,0.0,0.0,0.0,0.0,0.0,0.0,0.0,1.1727899700213257e-10,3.160465352738512e-10,1.8035917151197137e-11,0.0,0.0,0.0,0.0,0.0,0.0,0.0,0.0,0.0
1150.644,1150408,1150,644000000,base_footprint,-5.115276093225473e-06,0.001589644360183263,0.002173664880435721,0.9999963740862412,0.0,0.0,0.0,0.0,0.0,0.0,0.0,0.0,0.0,-4.682247394840538e-05,-0.00021157724524179173,1.0215327790264895e-05,0.0,0.0,0.0,0.0,0.0,0.0,0.0,0.0,0.0,1.1616154174807258e-10,3.1249615566873323e-10,1.4246708055916088e-11,0.0,0.0,0.0,0.0,0.0,0.0,0.0,0.0,0.0
1150.645,1150409,1150,645000000,base_footprint,-5.115279208957425e-06,0.0015896443601750977,0.002173666841888768,0.9999963740819778,0.0,0.0,0.0,0.0,0.0,0.0,0.0,0.0,0.0,-4.682247128498108e-05,-0.00021157724529898011,1.0215329846653623e-05,0.0,0.0,0.0,0.0,0.0,0.0,0.0,0.0,0.0,1.1544263560685301e-10,3.1032238551972895e-10,1.6189999778444072e-11,0.0,0.0,0.0,0.0,0.0,0.0,0.0,0.0,0.0
1150.646,1150410,1150,646000000,base_footprint,-5.115282324687457e-06,0.0015896443601669293,0.0021736688033419512,0.9999963740777142,0.0,0.0,0.0,0.0,0.0,0.0,0.0,0.0,0.0,-4.682246863297185e-05,-0.0002115772453714375,1.0215331936254212e-05,0.0,0.0,0.0,0.0,0.0,0.0,0.0,0.0,0.0,1.171951091639686e-10,3.157276832475132e-10,1.7762054178588732e-11,0.0,0.0,0.0,0.0,0.0,0.0,0.0,0.0,0.0
1150.647,1150411,1150,647000000,base_footprint,-5.115285440410929e-06,0.0015896443601587588,0.00217367076479526,0.9999963740734505,0.0,0.0,0.0,0.0,0.0,0.0,0.0,0.0,0.0,-4.6822465971167786e-05,-0.00021157724544223778,1.0215334004200546e-05,0.0,0.0,0.0,0.0,0.0,0.0,0.0,0.0,0.0,1.1606367690627163e-10,3.122053046184893e-10,1.7266149454471836e-11,0.0,0.0,0.0,0.0,0.0,0.0,0.0,0.0,0.0
1150.648,1150412,1150,648000000,base_footprint,-5.115288556142744e-06,0.0015896443601505904,0.002173672726248706,0.9999963740691871,0.0,0.0,0.0,0.0,0.0,0.0,0.0,0.0,0.0,-4.682246333974064e-05,-0.00021157724550643003,1.0215336095675157e-05,0.0,0.0,0.0,0.0,0.0,0.0,0.0,0.0,0.0,1.1728176895185293e-10,3.160008950466403e-10,1.7733543915815584e-11,0.0,0.0,0.0,0.0,0.0,0.0,0.0,0.0,0.0
1150.649,1150413,1150,649000000,base_footprint,-5.115291671867262e-06,0.001589644360142407,0.0021736746877022775,0.9999963740649235,0.0,0.0,0.0,0.0,0.0,0.0,0.0,0.0,0.0,-4.6822460676218926e-05,-0.00021157724560339234,1.0215338163405909e-05,0.0,0.0,0.0,0.0,0.0,0.0,0.0,0.0,0.0,1.1608563645260116e-10,3.1217009752550445e-10,1.8962871986663637e-11,0.0,0.0,0.0,0.0,0.0,0.0,0.0,0.0,0.0
1150.65,1150414,1150,650000000,base_footprint,-5.115294787597798e-06,0.001589644360134227,0.0021736766491559792,0.9999963740606599,0.0,0.0,0.0,0.0,0.0,0.0,0.0,0.0,0.0,-4.6822458039984075e-05,-0.0002115772456640959,1.0215340240366656e-05,0.0,0.0,0.0,0.0,0.0,0.0,0.0,0.0,0.0,1.165126974847496e-10,3.136410535693891e-10,1.542663326150474e-11,0.0,0.0,0.0,0.0,0.0,0.0,0.0,0.0,0.0
1150.651,1150415,1150,651000000,base_footprint,-5.115297903320216e-06,0.0015896443601260545,0.002173678610609814,0.9999963740563963,0.0,0.0,0.0,0.0,0.0,0.0,0.0,0.0,0.0,-4.6822455375422815e-05,-0.00021157724571567248,1.0215342323494783e-05,0.0,0.0,0.0,0.0,0.0,0.0,0.0,0.0,0.0,1.1683109738218795e-10,3.1468863007003973e-10,1.531149016932043e-11,0.0,0.0,0.0,0.0,0.0,0.0,0.0,0.0,0.0
1150.651,348221,1778966242,655851268,imu_link,-0.015374314039945602,0.02176801860332489,-0.37167394161224365,-0.927976131439209,0.0024999999441206455,0.0,0.0,0.0,0.0024999999441206455,0.0,0.0,0.0,0.0024999999441206455,0.0,0.0,0.0,0.019999999552965164,0.0,0.0,0.0,0.019999999552965164,0.0,0.0,0.0,0.019999999552965164,0.5123591423034668,0.18974047899246216,9.578601837158203,0.03999999910593033,0.0,0.0,0.0,0.03999999910593033,0.0,0.0,0.0,0.03999999910593033
1150.652,1150416,1150,652000000,base_footprint,-5.115301019059127e-06,0.0015896443601178935,0.0021736805720637695,0.9999963740521327,0.0,0.0,0.0,0.0,0.0,0.0,0.0,0.0,0.0,-4.682245275983718e-05,-0.0002115772457604385,1.0215344381434844e-05,0.0,0.0,0.0,0.0,0.0,0.0,0.0,0.0,0.0,1.1550235853093935e-10,3.1049956000792477e-10,1.5469926839534163e-11,0.0,0.0,0.0,0.0,0.0,0.0,0.0,0.0,0.0
1150.653,1150417,1150,653000000,base_footprint,-5.1153041347967615e-06,0.0015896443601097294,0.0021736825335178667,0.9999963740478691,0.0,0.0,0.0,0.0,0.0,0.0,0.0,0.0,0.0,-4.682245010914547e-05,-0.00021157724583382122,1.0215346482299235e-05,0.0,0.0,0.0,0.0,0.0,0.0,0.0,0.0,0.0,1.1778114399176776e-10,3.175642210986665e-10,1.6821289890345614e-11,0.0,0.0,0.0,0.0,0.0,0.0,0.0,0.0,0.0
1150.654,1150418,1150,654000000,base_footprint,-5.115307250521053e-06,0.0015896443601015671,0.0021736844949720854,0.9999963740436055,0.0,0.0,0.0,0.0,0.0,0.0,0.0,0.0,0.0,-4.68224474336399e-05,-0.00021157724589737715,1.0215348541636368e-05,0.0,0.0,0.0,0.0,0.0,0.0,0.0,0.0,0.0,1.1560351097519127e-10,3.10819089057362e-10,1.5280988289909304e-11,0.0,0.0,0.0,0.0,0.0,0.0,0.0,0.0,0.0
1150.655,1150419,1150,655000000,base_footprint,-5.115310366255076e-06,0.0015896443600933953,0.0021736864564264376,0.9999963740393419,0.0,0.0,0.0,0.0,0.0,0.0,0.0,0.0,0.0,-4.6822444804755406e-05,-0.00021157724598391947,1.0215350625638319e-05,0.0,0.0,0.0,0.0,0.0,0.0,0.0,0.0,0.0,1.1692119268011652e-10,3.147764829665739e-10,2.0047509128118426e-11,0.0,0.0,0.0,0.0,0.0,0.0,0.0,0.0,0.0
1150.656,1150420,1150,656000000,base_footprint,-5.1153134819902315e-06,0.001589644360085216,0.002173688417880923,0.9999963740350784,0.0,0.0,0.0,0.0,0.0,0.0,0.0,0.0,0.0,-4.682244215846601e-05,-0.00021157724606582994,1.0215352708975699e-05,0.0,0.0,0.0,0.0,0.0,0.0,0.0,0.0,0.0,1.168740064034803e-10,3.1469248804033205e-10,1.63774076144134e-11,0.0,0.0,0.0,0.0,0.0,0.0,0.0,0.0,0.0
1150.657,1150421,1150,657000000,base_footprint,-5.115316597728722e-06,0.0015896443600770247,0.0021736903793355355,0.9999963740308145,0.0,0.0,0.0,0.0,0.0,0.0,0.0,0.0,0.0,-4.682243951635588e-05,-0.0002115772461568042,1.0215354780255383e-05,0.0,0.0,0.0,0.0,0.0,0.0,0.0,0.0,0.0,1.1626149026155963e-10,3.1271711973262196e-10,1.9042833015260833e-11,0.0,0.0,0.0,0.0,0.0,0.0,0.0,0.0,0.0
1150.658,1150422,1150,658000000,base_footprint,-5.115319713449612e-06,0.0015896443600688498,0.002173692340790278,0.999996374026551,0.0,0.0,0.0,0.0,0.0,0.0,0.0,0.0,0.0,-4.682243683297521e-05,-0.00021157724619136892,1.0215356856875856e-05,0.0,0.0,0.0,0.0,0.0,0.0,0.0,0.0,0.0,1.1647577598671694e-10,3.1366051788306746e-10,1.567823902487541e-11,0.0,0.0,0.0,0.0,0.0,0.0,0.0,0.0,0.0
1150.659,1150423,1150,659000000,base_footprint,-5.115322829184975e-06,0.0015896443600606788,0.0021736943022451606,0.9999963740222874,0.0,0.0,0.0,0.0,0.0,0.0,0.0,0.0,0.0,-4.6822434213998565e-05,-0.00021157724625146704,1.0215358953763341e-05,0.0,0.0,0.0,0.0,0.0,0.0,0.0,0.0,0.0,1.1754779974740036e-10,3.168646309536567e-10,1.4321583045986778e-11,0.0,0.0,0.0,0.0,0.0,0.0,0.0,0.0,0.0
1150.659,348222,1778966242,662851268,imu_link,-0.016107480973005295,0.021819865331053734,-0.371655136346817,-0.9279699325561523,0.0024999999441206455,0.0,0.0,0.0,0.0024999999441206455,0.0,0.0,0.0,0.0024999999441206455,0.0,0.0,0.0,0.019999999552965164,0.0,0.0,0.0,0.019999999552965164,0.0,0.0,0.0,0.019999999552965164,0.5297170877456665,0.18794482946395874,9.552865028381348,0.03999999910593033,0.0,0.0,0.0,0.03999999910593033,0.0,0.0,0.0,0.03999999910593033
1150.66,1150424,1150,660000000,base_footprint,-5.115325944922513e-06,0.0015896443600525163,0.002173696263700169,0.9999963740180238,0.0,0.0,0.0,0.0,0.0,0.0,0.0,0.0,0.0,-4.682243156970979e-05,-0.0002115772463016652,1.0215361022263474e-05,0.0,0.0,0.0,0.0,0.0,0.0,0.0,0.0,0.0,1.160676750337997e-10,3.1226669195449284e-10,1.652614358912127e-11,0.0,0.0,0.0,0.0,0.0,0.0,0.0,0.0,0.0
1150.661,1150425,1150,661000000,base_footprint,-5.11532906064155e-06,0.001589644360044343,0.002173698225155311,0.9999963740137602,0.0,0.0,0.0,0.0,0.0,0.0,0.0,0.0,0.0,-4.682242888420256e-05,-0.00021157724639076604,1.0215363105856194e-05,0.0,0.0,0.0,0.0,0.0,0.0,0.0,0.0,0.0,1.1690396185324366e-10,3.1479859579416777e-10,1.7973806307189127e-11,0.0,0.0,0.0,0.0,0.0,0.0,0.0,0.0,0.0
1150.662,1150426,1150,662000000,base_footprint,-5.1153321763796035e-06,0.0015896443600361698,0.0021737001866105844,0.9999963740094966,0.0,0.0,0.0,0.0,0.0,0.0,0.0,0.0,0.0,-4.682242627400593e-05,-0.00021157724645782557,1.0215365185674355e-05,0.0,0.0,0.0,0.0,0.0,0.0,0.0,0.0,0.0,1.1667260516618986e-10,3.140632868816073e-10,1.747738425804351e-11,0.0,0.0,0.0,0.0,0.0,0.0,0.0,0.0,0.0
1150.663,1150427,1150,663000000,base_footprint,-5.115335292111739e-06,0.0015896443600279923,0.002173702148065984,0.999996374005233,0.0,0.0,0.0,0.0,0.0,0.0,0.0,0.0,0.0,-4.6822423613336446e-05,-0.00021157724653346125,1.0215367254408082e-05,0.0,0.0,0.0,0.0,0.0,0.0,0.0,0.0,0.0,1.1610251468279662e-10,3.123335867678862e-10,1.5317648356357254e-11,0.0,0.0,0.0,0.0,0.0,0.0,0.0,0.0,0.0
1150.664,1150428,1150,664000000,base_footprint,-5.115338407843734e-06,0.0015896443600198142,0.002173704109521508,0.9999963740009692,0.0,0.0,0.0,0.0,0.0,0.0,0.0,0.0,0.0,-4.6822420964574444e-05,-0.00021157724660113606,1.0215369321137477e-05,0.0,0.0,0.0,0.0,0.0,0.0,0.0,0.0,0.0,1.159984369758059e-10,3.119875862045549e-10,1.8540311303379272e-11,0.0,0.0,0.0,0.0,0.0,0.0,0.0,0.0,0.0
1150.665,1150429,1150,665000000,base_footprint,-5.115341523588459e-06,0.0015896443600116425,0.002173706070977167,0.9999963739967056,0.0,0.0,0.0,0.0,0.0,0.0,0.0,0.0,0.0,-4.682241834182876e-05,-0.00021157724665620922,1.021537140686919e-05,0.0,0.0,0.0,0.0,0.0,0.0,0.0,0.0,0.0,1.1696296771813767e-10,3.150507409247244e-10,1.525025415912389e-11,0.0,0.0,0.0,0.0,0.0,0.0,0.0,0.0,0.0
1150.665,348223,1778966242,667851268,imu_link,-0.016107480973005295,0.021819865331053734,-0.371655136346817,-0.9279699325561523,0.0024999999441206455,0.0,0.0,0.0,0.0024999999441206455,0.0,0.0,0.0,0.0024999999441206455,0.0,0.0,0.0,0.019999999552965164,0.0,0.0,0.0,0.019999999552965164,0.0,0.0,0.0,0.019999999552965164,0.5297170877456665,0.18794482946395874,9.552865028381348,0.03999999910593033,0.0,0.0,0.0,0.03999999910593033,0.0,0.0,0.0,0.03999999910593033
1150.666,1150430,1150,666000000,base_footprint,-5.115344639325627e-06,0.0015896443600034724,0.002173708032432957,0.9999963739924419,0.0,0.0,0.0,0.0,0.0,0.0,0.0,0.0,0.0,-4.6822415678116195e-05,-0.00021157724672037507,1.0215373485606902e-05,0.0,0.0,0.0,0.0,0.0,0.0,0.0,0.0,0.0,1.1661726944757096e-10,3.139674355243319e-10,1.5776927900021267e-11,0.0,0.0,0.0,0.0,0.0,0.0,0.0,0.0,0.0
1150.667,1150431,1150,667000000,base_footprint,-5.11534775505087e-06,0.0015896443599953125,0.0021737099938888838,0.9999963739881784,0.0,0.0,0.0,0.0,0.0,0.0,0.0,0.0,0.0,-4.682241300624622e-05,-0.00021157724676820666,1.0215375575317506e-05,0.0,0.0,0.0,0.0,0.0,0.0,0.0,0.0,0.0,1.1717500582032355e-10,3.15778358935271e-10,1.6773699235373287e-11,0.0,0.0,0.0,0.0,0.0,0.0,0.0,0.0,0.0
1150.668,1150432,1150,668000000,base_footprint,-5.115350870790853e-06,0.0015896443599871424,0.0021737119553449347,0.9999963739839146,0.0,0.0,0.0,0.0,0.0,0.0,0.0,0.0,0.0,-4.682241038694316e-05,-0.00021157724685482804,1.0215377641180516e-05,0.0,0.0,0.0,0.0,0.0,0.0,0.0,0.0,0.0,1.1596544495055232e-10,3.117949980328601e-10,1.702870875040667e-11,0.0,0.0,0.0,0.0,0.0,0.0,0.0,0.0,0.0
1150.669,1150433,1150,669000000,base_footprint,-5.115353986524873e-06,0.001589644359978978,0.0021737139168011197,0.999996373979651,0.0,0.0,0.0,0.0,0.0,0.0,0.0,0.0,0.0,-4.682240772681366e-05,-0.00021157724691154835,1.0215379726429392e-05,0.0,0.0,0.0,0.0,0.0,0.0,0.0,0.0,0.0,1.1695136454818208e-10,3.150321691299064e-10,1.753325318995841e-11,0.0,0.0,0.0,0.0,0.0,0.0,0.0,0.0,0.0
1150.67,1150434,1150,670000000,base_footprint,-5.115357102255126e-06,0.0015896443599707972,0.0021737158782574274,0.9999963739753873,0.0,0.0,0.0,0.0,0.0,0.0,0.0,0.0,0.0,-4.682240507023808e-05,-0.00021157724701077914,1.0215381788355257e-05,0.0,0.0,0.0,0.0,0.0,0.0,0.0,0.0,0.0,1.1577839439449353e-10,3.112116326017438e-10,1.7316215100531532e-11,0.0,0.0,0.0,0.0,0.0,0.0,0.0,0.0,0.0
1150.67,348224,1778966242,672851268,imu_link,-0.01677541993558407,0.021489469334483147,-0.3716352581977844,-0.9279738664627075,0.0024999999441206455,0.0,0.0,0.0,0.0024999999441206455,0.0,0.0,0.0,0.0024999999441206455,0.0,0.0,0.0,0.019999999552965164,0.0,0.0,0.0,0.019999999552965164,0.0,0.0,0.0,0.019999999552965164,0.4991910457611084,0.1999158412218094,9.601945877075195,0.03999999910593033,0.0,0.0,0.0,0.03999999910593033,0.0,0.0,0.0,0.03999999910593033
1150.671,1150435,1150,671000000,base_footprint,-5.1153602179997405e-06,0.0015896443599626154,0.0021737178397138695,0.9999963739711236,0.0,0.0,0.0,0.0,0.0,0.0,0.0,0.0,0.0,-4.682240245077243e-05,-0.00021157724708039476,1.0215383874008418e-05,0.0,0.0,0.0,0.0,0.0,0.0,0.0,0.0,0.0,1.1697500540195298e-10,3.1503367882868816e-10,1.601582939053518e-11,0.0,0.0,0.0,0.0,0.0,0.0,0.0,0.0,0.0
1150.672,1150436,1150,672000000,base_footprint,-5.1153633337440406e-06,0.001589644359954441,0.0021737198011704453,0.9999963739668599,0.0,0.0,0.0,0.0,0.0,0.0,0.0,0.0,0.0,-4.682239980177739e-05,-0.00021157724713284946,1.0215385957833618e-05,0.0,0.0,0.0,0.0,0.0,0.0,0.0,0.0,0.0,1.1687545816162596e-10,3.147767551835439e-10,1.808175559193284e-11,0.0,0.0,0.0,0.0,0.0,0.0,0.0,0.0,0.0
1150.673,1150437,1150,673000000,base_footprint,-5.115366449478145e-06,0.001589644359946268,0.0021737217626271576,0.9999963739625962,0.0,0.0,0.0,0.0,0.0,0.0,0.0,0.0,0.0,-4.6822397133093704e-05,-0.00021157724719713346,1.021538804767048e-05,0.0,0.0,0.0,0.0,0.0,0.0,0.0,0.0,0.0,1.1719914528496756e-10,3.157903146236898e-10,1.6699916469506903e-11,0.0,0.0,0.0,0.0,0.0,0.0,0.0,0.0,0.0
1150.674,1150438,1150,674000000,base_footprint,-5.115369565208957e-06,0.0015896443599380907,0.0021737237240839935,0.9999963739583325,0.0,0.0,0.0,0.0,0.0,0.0,0.0,0.0,0.0,-4.682239447780738e-05,-0.00021157724727296828,1.0215390111748736e-05,0.0,0.0,0.0,0.0,0.0,0.0,0.0,0.0,0.0,1.158653498163851e-10,3.115624285930785e-10,1.697694831823122e-11,0.0,0.0,0.0,0.0,0.0,0.0,0.0,0.0,0.0
1150.675,1150439,1150,675000000,base_footprint,-5.115372680947836e-06,0.0015896443599299212,0.002173725685540953,0.9999963739540688,0.0,0.0,0.0,0.0,0.0,0.0,0.0,0.0,0.0,-4.6822391845459644e-05,-0.00021157724732459758,1.0215392176019218e-05,0.0,0.0,0.0,0.0,0.0,0.0,0.0,0.0,0.0,1.1583434357926651e-10,3.115637965152175e-10,1.3670471028590199e-11,0.0,0.0,0.0,0.0,0.0,0.0,0.0,0.0,0.0
1150.676,1150440,1150,676000000,base_footprint,-5.115375796675943e-06,0.0015896443599217522,0.002173727646998043,0.9999963739498051,0.0,0.0,0.0,0.0,0.0,0.0,0.0,0.0,0.0,-4.682238917549515e-05,-0.00021157724739118012,1.021539425373858e-05,0.0,0.0,0.0,0.0,0.0,0.0,0.0,0.0,0.0,1.16571785019379e-10,3.138157365746753e-10,1.7861850528767673e-11,0.0,0.0,0.0,0.0,0.0,0.0,0.0,0.0,0.0
1150.676,348225,1778966242,677851268,imu_link,-0.017487889155745506,0.02128710225224495,-0.3716149628162384,-0.9279735088348389,0.0024999999441206455,0.0,0.0,0.0,0.0024999999441206455,0.0,0.0,0.0,0.0024999999441206455,0.0,0.0,0.0,0.019999999552965164,0.0,0.0,0.0,0.019999999552965164,0.0,0.0,0.0,0.019999999552965164,0.507570743560791,0.2017114907503128,9.567828178405762,0.03999999910593033,0.0,0.0,0.0,0.03999999910593033,0.0,0.0,0.0,0.03999999910593033
1150.679,1150441,1150,677000000,base_footprint,-5.1153789124218655e-06,0.0015896443599135825,0.0021737296084552615,0.9999963739455416,0.0,0.0,0.0,0.0,0.0,0.0,0.0,0.0,0.0,-4.682238656262272e-05,-0.00021157724746083393,1.0215396326983677e-05,0.0,0.0,0.0,0.0,0.0,0.0,0.0,0.0,0.0,1.1633326147992382e-10,3.129918011873197e-10,1.73954175733326e-11,0.0,0.0,0.0,0.0,0.0,0.0,0.0,0.0,0.0
1150.679,1150443,1150,679000000,base_footprint,-5.1153851439028975e-06,0.0015896443598972302,0.0021737335313701048,0.999996373937014,0.0,0.0,0.0,0.0,0.0,0.0,0.0,0.0,0.0,-4.682238124995272e-05,-0.00021157724759655576,1.0215400506023467e-05,0.0,0.0,0.0,0.0,0.0,0.0,0.0,0.0,0.0,1.173488464703151e-10,3.162863174242401e-10,1.8503167287030383e-11,0.0,0.0,0.0,0.0,0.0,0.0,0.0,0.0,0.0
1150.68,1150444,1150,680000000,base_footprint,-5.11538825963901e-06,0.001589644359889061,0.00217373549282772,0.9999963739327505,0.0,0.0,0.0,0.0,0.0,0.0,0.0,0.0,0.0,-4.682237859761643e-05,-0.0002115772476615719,1.021540257032747e-05,0.0,0.0,0.0,0.0,0.0,0.0,0.0,0.0,0.0,1.1585950929163355e-10,3.115933282162568e-10,1.479830526742087e-11,0.0,0.0,0.0,0.0,0.0,0.0,0.0,0.0,0.0
1150.682,1150445,1150,681000000,base_footprint,-5.115391375366119e-06,0.001589644359880895,0.0021737374542854697,0.9999963739284868,0.0,0.0,0.0,0.0,0.0,0.0,0.0,0.0,0.0,-4.682237593148458e-05,-0.00021157724772142262,1.0215404657156278e-05,0.0,0.0,0.0,0.0,0.0,0.0,0.0,0.0,0.0,1.1703255216413314e-10,3.1529976715925823e-10,1.59111309919908e-11,0.0,0.0,0.0,0.0,0.0,0.0,0.0,0.0,0.0
1150.682,1150446,1150,682000000,base_footprint,-5.115394491096458e-06,0.0015896443598727235,0.0021737394157433495,0.999996373924223,0.0,0.0,0.0,0.0,0.0,0.0,0.0,0.0,0.0,-4.682237328947019e-05,-0.00021157724779906104,1.0215406734232708e-05,0.0,0.0,0.0,0.0,0.0,0.0,0.0,0.0,0.0,1.165465677429934e-10,3.1366501698780314e-10,1.8002988677032208e-11,0.0,0.0,0.0,0.0,0.0,0.0,0.0,0.0,0.0
1150.683,1150447,1150,683000000,base_footprint,-5.115397606841628e-06,0.0015896443598645519,0.002173741377201357,0.9999963739199592,0.0,0.0,0.0,0.0,0.0,0.0,0.0,0.0,0.0,-4.682237067058354e-05,-0.0002115772478669469,1.021540880678569e-05,0.0,0.0,0.0,0.0,0.0,0.0,0.0,0.0,0.0,1.1628804058415883e-10,3.1289041708107e-10,1.5159127275606847e-11,0.0,0.0,0.0,0.0,0.0,0.0,0.0,0.0,0.0
1150.684,1150448,1150,684000000,base_footprint,-5.115400722585614e-06,0.0015896443598563824,0.002173743338659496,0.9999963739156955,0.0,0.0,0.0,0.0,0.0,0.0,0.0,0.0,0.0,-4.682236801980495e-05,-0.00021157724793065323,1.0215410886499242e-05,0.0,0.0,0.0,0.0,0.0,0.0,0.0,0.0,0.0,1.1666868417824391e-10,3.1411038390800064e-10,1.7267486452877232e-11,0.0,0.0,0.0,0.0,0.0,0.0,0.0,0.0,0.0
1150.685,1150449,1150,685000000,base_footprint,-5.115403838320047e-06,0.0015896443598482101,0.002173745300117763,0.9999963739114318,0.0,0.0,0.0,0.0,0.0,0.0,0.0,0.0,0.0,-4.682236535208524e-05,-0.0002115772480030679,1.0215412958654195e-05,0.0,0.0,0.0,0.0,0.0,0.0,0.0,0.0,0.0,1.1628504496993711e-10,3.1290251962554e-10,1.7152614983738477e-11,0.0,0.0,0.0,0.0,0.0,0.0,0.0,0.0,0.0
1150.686,1150450,1150,686000000,base_footprint,-5.115406954054729e-06,0.0015896443598400409,0.002173747261576162,0.9999963739071681,0.0,0.0,0.0,0.0,0.0,0.0,0.0,0.0,0.0,-4.682236270426687e-05,-0.0002115772480642213,1.0215415039375802e-05,0.0,0.0,0.0,0.0,0.0,0.0,0.0,0.0,0.0,1.1672312515343022e-10,3.1427100706905207e-10,1.8874390953970456e-11,0.0,0.0,0.0,0.0,0.0,0.0,0.0,0.0,0.0
1150.687,1150451,1150,687000000,base_footprint,-5.115410069801315e-06,0.0015896443598318656,0.002173749223034688,0.9999963739029044,0.0,0.0,0.0,0.0,0.0,0.0,0.0,0.0,0.0,-4.6822360079400494e-05,-0.0002115772481440309,1.0215417110345342e-05,0.0,0.0,0.0,0.0,0.0,0.0,0.0,0.0,0.0,1.162192817729282e-10,3.1263930221777953e-10,1.520548997939492e-11,0.0,0.0,0.0,0.0,0.0,0.0,0.0,0.0,0.0
1150.687,1150452,1150,688000000,base_footprint,-5.115413185533557e-06,0.001589644359823691,0.0021737511844933484,0.9999963738986407,0.0,0.0,0.0,0.0,0.0,0.0,0.0,0.0,0.0,-4.6822357402397465e-05,-0.00021157724820950588,1.0215419196015891e-05,0.0,0.0,0.0,0.0,0.0,0.0,0.0,0.0,0.0,1.1698422481526024e-10,3.1512721518263334e-10,1.7390851536507094e-11,0.0,0.0,0.0,0.0,0.0,0.0,0.0,0.0,0.0
1150.688,1150453,1150,689000000,base_footprint,-5.115416301274303e-06,0.0015896443598155134,0.0021737531459521385,0.9999963738943769,0.0,0.0,0.0,0.0,0.0,0.0,0.0,0.0,0.0,-4.682235477095338e-05,-0.0002115772482828924,1.0215421271917752e-05,0.0,0.0,0.0,0.0,0.0,0.0,0.0,0.0,0.0,1.1646909548213487e-10,3.1345522180916655e-10,1.455205651616176e-11,0.0,0.0,0.0,0.0,0.0,0.0,0.0,0.0,0.0
1150.69,1150454,1150,690000000,base_footprint,-5.115419417028157e-06,0.0015896443598073472,0.0021737551074110613,0.9999963738901131,0.0,0.0,0.0,0.0,0.0,0.0,0.0,0.0,0.0,-4.682235214891068e-05,-0.00021157724832732925,1.021542335520161e-05,0.0,0.0,0.0,0.0,0.0,0.0,0.0,0.0,0.0,1.1682982815299378e-10,3.146481837729188e-10,1.6729313091781247e-11,0.0,0.0,0.0,0.0,0.0,0.0,0.0,0.0,0.0
1150.691,1150455,1150,691000000,base_footprint,-5.1154225327591806e-06,0.0015896443597991756,0.0021737570688701133,0.9999963738858494,0.0,0.0,0.0,0.0,0.0,0.0,0.0,0.0,0.0,-4.6822349454531454e-05,-0.00021157724840563708,1.0215425429595792e-05,0.0,0.0,0.0,0.0,0.0,0.0,0.0,0.0,0.0,1.164197029579806e-10,3.133082284816565e-10,1.9392634017874616e-11,0.0,0.0,0.0,0.0,0.0,0.0,0.0,0.0,0.0
1150.692,1150456,1150,692000000,base_footprint,-5.1154256484904e-06,0.001589644359790999,0.0021737590303292967,0.9999963738815857,0.0,0.0,0.0,0.0,0.0,0.0,0.0,0.0,0.0,-4.682234680658612e-05,-0.00021157724848275367,1.0215427509428734e-05,0.0,0.0,0.0,0.0,0.0,0.0,0.0,0.0,0.0,1.166874632129403e-10,3.141262488877902e-10,1.7235808240356404e-11,0.0,0.0,0.0,0.0,0.0,0.0,0.0,0.0,0.0
1150.693,1150457,1150,693000000,base_footprint,-5.115428764237006e-06,0.0015896443597828228,0.0021737609917886077,0.9999963738773219,0.0,0.0,0.0,0.0,0.0,0.0,0.0,0.0,0.0,-4.6822344188868744e-05,-0.00021157724854925508,1.0215429581225343e-05,0.0,0.0,0.0,0.0,0.0,0.0,0.0,0.0,0.0,1.1624577026355396e-10,3.1276579865767984e-10,1.488713441729969e-11,0.0,0.0,0.0,0.0,0.0,0.0,0.0,0.0,0.0
1150.694,1150458,1150,694000000,base_footprint,-5.115431879978226e-06,0.0015896443597746503,0.002173762953248047,0.9999963738730581,0.0,0.0,0.0,0.0,0.0,0.0,0.0,0.0,0.0,-4.682234152952576e-05,-0.00021157724860927117,1.0215431654270372e-05,0.0,0.0,0.0,0.0,0.0,0.0,0.0,0.0,0.0,1.1631101711386327e-10,3.1303576869600406e-10,1.5185357280713612e-11,0.0,0.0,0.0,0.0,0.0,0.0,0.0,0.0,0.0
1150.695,1150459,1150,695000000,base_footprint,-5.115434995722383e-06,0.0015896443597664862,0.0021737649147076173,0.9999963738687943,0.0,0.0,0.0,0.0,0.0,0.0,0.0,0.0,0.0,-4.682233888715424e-05,-0.00021157724865949402,1.0215433733580373e-05,0.0,0.0,0.0,0.0,0.0,0.0,0.0,0.0,0.0,1.1662759694888517e-10,3.1403089629460343e-10,1.557077243769497e-11,0.0,0.0,0.0,0.0,0.0,0.0,0.0,0.0,0.0
1150.695,1150460,1150,696000000,base_footprint,-5.11543811146701e-06,0.0015896443597583115,0.0021737668761673203,0.9999963738645306,0.0,0.0,0.0,0.0,0.0,0.0,0.0,0.0,0.0,-4.6822336239431385e-05,-0.000211577248748581,1.0215435814364526e-05,0.0,0.0,0.0,0.0,0.0,0.0,0.0,0.0,0.0,1.1675192791456515e-10,3.1427766334813434e-10,1.7590773552650464e-11,0.0,0.0,0.0,0.0,0.0,0.0,0.0,0.0,0.0
1150.697,1150461,1150,697000000,base_footprint,-5.115441227202092e-06,0.0015896443597501382,0.0021737688376271434,0.9999963738602669,0.0,0.0,0.0,0.0,0.0,0.0,0.0,0.0,0.0,-4.682233357156073e-05,-0.00021157724881312823,1.0215437872475034e-05,0.0,0.0,0.0,0.0,0.0,0.0,0.0,0.0,0.0,1.1554598032262153e-10,3.1060933169443284e-10,1.7781343917901458e-11,0.0,0.0,0.0,0.0,0.0,0.0,0.0,0.0,0.0
1150.698,1150462,1150,698000000,base_footprint,-5.115444342946306e-06,0.0015896443597419709,0.0021737707990871,0.999996373856003,0.0,0.0,0.0,0.0,0.0,0.0,0.0,0.0,0.0,-4.6822330941717755e-05,-0.00021157724886757242,1.021543995660744e-05,0.0,0.0,0.0,0.0,0.0,0.0,0.0,0.0,0.0,1.1688702635980035e-10,3.148010930593593e-10,1.7581925667948893e-11,0.0,0.0,0.0,0.0,0.0,0.0,0.0,0.0,0.0
1150.699,1150463,1150,699000000,base_footprint,-5.115447458689541e-06,0.001589644359733793,0.0021737727605471847,0.9999963738517392,0.0,0.0,0.0,0.0,0.0,0.0,0.0,0.0,0.0,-4.68223282909058e-05,-0.0002115772489563638,1.0215442029069665e-05,0.0,0.0,0.0,0.0,0.0,0.0,0.0,0.0,0.0,1.1631758047021027e-10,3.1292324910911505e-10,1.752286969236347e-11,0.0,0.0,0.0,0.0,0.0,0.0,0.0,0.0,0.0
1150.7,1150464,1150,700000000,base_footprint,-5.115450574420608e-06,0.0015896443597256174,0.0021737747220073956,0.9999963738474754,0.0,0.0,0.0,0.0,0.0,0.0,0.0,0.0,0.0,-4.682232561809134e-05,-0.00021157724901857782,1.021544409822085e-05,0.0,0.0,0.0,0.0,0.0,0.0,0.0,0.0,0.0,1.1611296261866466e-10,3.124225062876404e-10,1.573710018836291e-11,0.0,0.0,0.0,0.0,0.0,0.0,0.0,0.0,0.0
1150.701,1150465,1150,701000000,base_footprint,-5.115453690161585e-06,0.0015896443597174445,0.0021737766834677404,0.9999963738432116,0.0,0.0,0.0,0.0,0.0,0.0,0.0,0.0,0.0,-4.682232298968736e-05,-0.0002115772490808169,1.021544618363411e-05,0.0,0.0,0.0,0.0,0.0,0.0,0.0,0.0,0.0,1.169655928690751e-10,3.1500494279885063e-10,1.8420151145696733e-11,0.0,0.0,0.0,0.0,0.0,0.0,0.0,0.0,0.0
1150.701,1150466,1150,702000000,base_footprint,-5.115456805912062e-06,0.0015896443597092685,0.0021737786449282205,0.9999963738389478,0.0,0.0,0.0,0.0,0.0,0.0,0.0,0.0,0.0,-4.6822320360273946e-05,-0.0002115772491542599,1.0215448271158674e-05,0.0,0.0,0.0,0.0,0.0,0.0,0.0,0.0,0.0,1.1708041365889108e-10,3.1535057560874923e-10,1.6176208947162153e-11,0.0,0.0,0.0,0.0,0.0,0.0,0.0,0.0,0.0
1150.703,1150467,1150,703000000,base_footprint,-5.115459921653252e-06,0.001589644359701085,0.002173780606388831,0.999996373834684,0.0,0.0,0.0,0.0,0.0,0.0,0.0,0.0,0.0,-4.68223176929826e-05,-0.00021157724923693996,1.0215450347331922e-05,0.0,0.0,0.0,0.0,0.0,0.0,0.0,0.0,0.0,1.165119120361721e-10,3.1355439824340894e-10,1.8789076679667313e-11,0.0,0.0,0.0,0.0,0.0,0.0,0.0,0.0,0.0
1150.704,1150468,1150,704000000,base_footprint,-5.115463037392606e-06,0.0015896443596929114,0.0021737825678495707,0.9999963738304202,0.0,0.0,0.0,0.0,0.0,0.0,0.0,0.0,0.0,-4.682231504099389e-05,-0.0002115772492840846,1.0215452423700777e-05,0.0,0.0,0.0,0.0,0.0,0.0,0.0,0.0,0.0,1.1646510018334332e-10,3.1356727383192315e-10,1.353142803680296e-11,0.0,0.0,0.0,0.0,0.0,0.0,0.0,0.0,0.0
1150.705,1150469,1150,705000000,base_footprint,-5.115466153139643e-06,0.0015896443596847343,0.0021737845293104347,0.9999963738261564,0.0,0.0,0.0,0.0,0.0,0.0,0.0,0.0,0.0,-4.6822312407631563e-05,-0.00021157724935822727,1.0215454488364767e-05,0.0,0.0,0.0,0.0,0.0,0.0,0.0,0.0,0.0,1.1589299589020225e-10,3.1162406568990913e-10,1.7697423652670955e-11,0.0,0.0,0.0,0.0,0.0,0.0,0.0,0.0,0.0
1150.705,348226,1778966242,686851268,imu_link,-0.017487889155745506,0.02128710225224495,-0.3716149628162384,-0.9279735088348389,0.0024999999441206455,0.0,0.0,0.0,0.0024999999441206455,0.0,0.0,0.0,0.0024999999441206455,0.0,0.0,0.0,0.019999999552965164,0.0,0.0,0.0,0.019999999552965164,0.0,0.0,0.0,0.019999999552965164,0.507570743560791,0.2017114907503128,9.567828178405762,0.03999999910593033,0.0,0.0,0.0,0.03999999910593033,0.0,0.0,0.0,0.03999999910593033
1150.706,1150470,1150,706000000,base_footprint,-5.115469268887083e-06,0.0015896443596765608,0.002173786490771437,0.9999963738218925,0.0,0.0,0.0,0.0,0.0,0.0,0.0,0.0,0.0,-4.682230976037741e-05,-0.00021157724941876668,1.0215456581906909e-05,0.0,0.0,0.0,0.0,0.0,0.0,0.0,0.0,0.0,1.1738012398180596e-10,3.163652628373019e-10,1.551235411878334e-11,0.0,0.0,0.0,0.0,0.0,0.0,0.0,0.0,0.0
1150.707,1150471,1150,707000000,base_footprint,-5.11547238462153e-06,0.001589644359668398,0.0021737884522325624,0.9999963738176287,0.0,0.0,0.0,0.0,0.0,0.0,0.0,0.0,0.0,-4.6822307085724904e-05,-0.00021157724946382033,1.0215458645552817e-05,0.0,0.0,0.0,0.0,0.0,0.0,0.0,0.0,0.0,1.1580873322217849e-10,3.1152188279094215e-10,1.511009619922111e-11,0.0,0.0,0.0,0.0,0.0,0.0,0.0,0.0,0.0
1150.708,1150472,1150,708000000,base_footprint,-5.1154755003593445e-06,0.0015896443596602275,0.002173790413693826,0.9999963738133649,0.0,0.0,0.0,0.0,0.0,0.0,0.0,0.0,0.0,-4.6822304444309606e-05,-0.00021157724954698769,1.0215460737881835e-05,0.0,0.0,0.0,0.0,0.0,0.0,0.0,0.0,0.0,1.1734918030776238e-10,3.161571310504333e-10,1.8677129443835287e-11,0.0,0.0,0.0,0.0,0.0,0.0,0.0,0.0,0.0
1150.709,1150473,1150,709000000,base_footprint,-5.1154786161027535e-06,0.0015896443596520506,0.0021737923751552193,0.9999963738091011,0.0,0.0,0.0,0.0,0.0,0.0,0.0,0.0,0.0,-4.68223018068073e-05,-0.0002115772496270997,1.0215462814766618e-05,0.0,0.0,0.0,0.0,0.0,0.0,0.0,0.0,0.0,1.165358193254594e-10,3.1362415560101734e-10,1.6859807790677276e-11,0.0,0.0,0.0,0.0,0.0,0.0,0.0,0.0,0.0
1150.71,1150474,1150,710000000,base_footprint,-5.115481731853505e-06,0.0015896443596438755,0.002173794336616737,0.9999963738048373,0.0,0.0,0.0,0.0,0.0,0.0,0.0,0.0,0.0,-4.682229917283222e-05,-0.00021157724969061528,1.0215464880005906e-05,0.0,0.0,0.0,0.0,0.0,0.0,0.0,0.0,0.0,1.1590627806342485e-10,3.1172011439479054e-10,1.5933258712165996e-11,0.0,0.0,0.0,0.0,0.0,0.0,0.0,0.0,0.0
1150.711,1150475,1150,711000000,base_footprint,-5.115484847597202e-06,0.0015896443596357004,0.0021737962980783805,0.9999963738005735,0.0,0.0,0.0,0.0,0.0,0.0,0.0,0.0,0.0,-4.682229651017557e-05,-0.0002115772497580047,1.0215466948652496e-05,0.0,0.0,0.0,0.0,0.0,0.0,0.0,0.0,0.0,1.1609399290692338e-10,3.1232365688953613e-10,1.6812208247369573e-11,0.0,0.0,0.0,0.0,0.0,0.0,0.0,0.0,0.0
1150.713,1150476,1150,712000000,base_footprint,-5.115487963335727e-06,0.0015896443596275336,0.0021737982595401665,0.9999963737963097,0.0,0.0,0.0,0.0,0.0,0.0,0.0,0.0,0.0,-4.682229385198622e-05,-0.00021157724980884612,1.0215469050191375e-05,0.0,0.0,0.0,0.0,0.0,0.0,0.0,0.0,0.0,1.1779656474084535e-10,3.176881918100271e-10,1.7762364628826847e-11,0.0,0.0,0.0,0.0,0.0,0.0,0.0,0.0,0.0
1150.713,1150477,1150,713000000,base_footprint,-5.1154910790743855e-06,0.0015896443596193598,0.0021738002210020834,0.9999963737920458,0.0,0.0,0.0,0.0,0.0,0.0,0.0,0.0,0.0,-4.682229120358437e-05,-0.00021157724988939857,1.0215471128507102e-05,0.0,0.0,0.0,0.0,0.0,0.0,0.0,0.0,0.0,1.1660564144379427e-10,3.138736789081182e-10,1.4506972882591219e-11,0.0,0.0,0.0,0.0,0.0,0.0,0.0,0.0,0.0
1150.714,1150478,1150,714000000,base_footprint,-5.11549419482185e-06,0.0015896443596111957,0.002173802182464126,0.9999963737877821,0.0,0.0,0.0,0.0,0.0,0.0,0.0,0.0,0.0,-4.6822288572793204e-05,-0.00021157724993817528,1.0215473197022356e-05,0.0,0.0,0.0,0.0,0.0,0.0,0.0,0.0,0.0,1.1606420901191668e-10,3.122507787069457e-10,1.6731259654081867e-11,0.0,0.0,0.0,0.0,0.0,0.0,0.0,0.0,0.0
1150.715,1150479,1150,715000000,base_footprint,-5.1154973105722726e-06,0.0015896443596030217,0.0021738041439263093,0.999996373783518,0.0,0.0,0.0,0.0,0.0,0.0,0.0,0.0,0.0,-4.6822285930439034e-05,-0.0002115772500245846,1.021547529620928e-05,0.0,0.0,0.0,0.0,0.0,0.0,0.0,0.0,0.0,1.177107445953491e-10,3.172765329746585e-10,1.8453569398092215e-11,0.0,0.0,0.0,0.0,0.0,0.0,0.0,0.0,0.0
1150.716,1150480,1150,716000000,base_footprint,-5.11550042631784e-06,0.0015896443595948486,0.002173806105388616,0.9999963737792542,0.0,0.0,0.0,0.0,0.0,0.0,0.0,0.0,0.0,-4.682228327190957e-05,-0.0002115772500907021,1.02154773595257e-05,0.0,0.0,0.0,0.0,0.0,0.0,0.0,0.0,0.0,1.1581770675714788e-10,3.114424993580135e-10,1.739210248917436e-11,0.0,0.0,0.0,0.0,0.0,0.0,0.0,0.0,0.0
1150.717,1150481,1150,717000000,base_footprint,-5.115503542071046e-06,0.0015896443595866706,0.00217380806685105,0.9999963737749904,0.0,0.0,0.0,0.0,0.0,0.0,0.0,0.0,0.0,-4.6822280638567296e-05,-0.0002115772501672136,1.0215479429899368e-05,0.0,0.0,0.0,0.0,0.0,0.0,0.0,0.0,0.0,1.1618163302639246e-10,3.125587004458706e-10,1.4341097636312871e-11,0.0,0.0,0.0,0.0,0.0,0.0,0.0,0.0,0.0
1150.718,1150482,1150,718000000,base_footprint,-5.115506657818071e-06,0.0015896443595785003,0.0021738100283136145,0.9999963737707266,0.0,0.0,0.0,0.0,0.0,0.0,0.0,0.0,0.0,-4.682227797792062e-05,-0.00021157725021948596,1.0215481508041333e-05,0.0,0.0,0.0,0.0,0.0,0.0,0.0,0.0,0.0,1.1657239395298816e-10,3.138712445599691e-10,1.6286832573667613e-11,0.0,0.0,0.0,0.0,0.0,0.0,0.0,0.0,0.0
1150.719,1150483,1150,719000000,base_footprint,-5.115509773553495e-06,0.0015896443595703347,0.002173811989776319,0.9999963737664627,0.0,0.0,0.0,0.0,0.0,0.0,0.0,0.0,0.0,-4.6822275306641796e-05,-0.00021157725027653199,1.0215483604674664e-05,0.0,0.0,0.0,0.0,0.0,0.0,0.0,0.0,0.0,1.1754346328082705e-10,3.1690641635082275e-10,1.595443293618982e-11,0.0,0.0,0.0,0.0,0.0,0.0,0.0,0.0,0.0
1150.72,1150484,1150,720000000,base_footprint,-5.115512889302631e-06,0.0015896443595621705,0.002173813951239146,0.9999963737621989,0.0,0.0,0.0,0.0,0.0,0.0,0.0,0.0,0.0,-4.682227268535102e-05,-0.000211577250342451,1.0215485667007287e-05,0.0,0.0,0.0,0.0,0.0,0.0,0.0,0.0,0.0,1.1576364157663067e-10,3.1122147130431676e-10,1.801254657191433e-11,0.0,0.0,0.0,0.0,0.0,0.0,0.0,0.0,0.0
1150.721,1150485,1150,721000000,base_footprint,-5.115516005045721e-06,0.0015896443595540015,0.0021738159127021044,0.9999963737579349,0.0,0.0,0.0,0.0,0.0,0.0,0.0,0.0,0.0,-4.682227002482274e-05,-0.00021157725041874508,1.0215487746026696e-05,0.0,0.0,0.0,0.0,0.0,0.0,0.0,0.0,0.0,1.166436776759011e-10,3.1401552540235516e-10,1.689191659053472e-11,0.0,0.0,0.0,0.0,0.0,0.0,0.0,0.0,0.0
1150.722,1150486,1150,722000000,base_footprint,-5.115519120784915e-06,0.0015896443595458326,0.002173817874165198,0.999996373753671,0.0,0.0,0.0,0.0,0.0,0.0,0.0,0.0,0.0,-4.6822267368734696e-05,-0.00021157725048574373,1.021548983345565e-05,0.0,0.0,0.0,0.0,0.0,0.0,0.0,0.0,0.0,1.1707901086602063e-10,3.153785768982605e-10,1.8409694164424857e-11,0.0,0.0,0.0,0.0,0.0,0.0,0.0,0.0,0.0
1150.723,1150487,1150,723000000,base_footprint,-5.115522236518831e-06,0.0015896443595376565,0.0021738198356284102,0.9999963737494071,0.0,0.0,0.0,0.0,0.0,0.0,0.0,0.0,0.0,-4.6822264709202644e-05,-0.00021157725056760148,1.0215491887478338e-05,0.0,0.0,0.0,0.0,0.0,0.0,0.0,0.0,0.0,1.1534581300961485e-10,3.099273379857618e-10,1.6669411883398826e-11,0.0,0.0,0.0,0.0,0.0,0.0,0.0,0.0,0.0
1150.724,1150488,1150,724000000,base_footprint,-5.115525352266752e-06,0.0015896443595294722,0.0021738217970917574,0.9999963737451432,0.0,0.0,0.0,0.0,0.0,0.0,0.0,0.0,0.0,-4.6822262089018714e-05,-0.000211577250650934,1.0215493974618132e-05,0.0,0.0,0.0,0.0,0.0,0.0,0.0,0.0,0.0,1.170715757885908e-10,3.1527846563280367e-10,1.7813019053216376e-11,0.0,0.0,0.0,0.0,0.0,0.0,0.0,0.0,0.0
1150.725,1150489,1150,725000000,base_footprint,-5.115528468016354e-06,0.0015896443595212915,0.002173823758555234,0.9999963737408795,0.0,0.0,0.0,0.0,0.0,0.0,0.0,0.0,0.0,-4.6822259443731574e-05,-0.00021157725071191158,1.021549604867489e-05,0.0,0.0,0.0,0.0,0.0,0.0,0.0,0.0,0.0,1.1636741927178067e-10,3.1317584658754354e-10,1.6225547222403764e-11,0.0,0.0,0.0,0.0,0.0,0.0,0.0,0.0,0.0
1150.726,1150490,1150,726000000,base_footprint,-5.115531583763674e-06,0.0015896443595131153,0.0021738257200188365,0.9999963737366155,0.0,0.0,0.0,0.0,0.0,0.0,0.0,0.0,0.0,-4.682225679064542e-05,-0.00021157725076921695,1.02154981189471e-05,0.0,0.0,0.0,0.0,0.0,0.0,0.0,0.0,0.0,1.16168928705717e-10,3.125728599656636e-10,1.7150719576548307e-11,0.0,0.0,0.0,0.0,0.0,0.0,0.0,0.0,0.0
1150.727,1150491,1150,727000000,base_footprint,-5.115534699516333e-06,0.0015896443595049417,0.002173827681482577,0.9999963737323516,0.0,0.0,0.0,0.0,0.0,0.0,0.0,0.0,0.0,-4.682225415321833e-05,-0.000211577250831656,1.0215500211492772e-05,0.0,0.0,0.0,0.0,0.0,0.0,0.0,0.0,0.0,1.173224587518452e-10,3.161855247189511e-10,1.337514026161143e-11,0.0,0.0,0.0,0.0,0.0,0.0,0.0,0.0,0.0
1150.728,1150492,1150,728000000,base_footprint,-5.1155378152758406e-06,0.0015896443594967669,0.0021738296429464473,0.9999963737280877,0.0,0.0,0.0,0.0,0.0,0.0,0.0,0.0,0.0,-4.682225151826889e-05,-0.00021157725090175714,1.0215502287481344e-05,0.0,0.0,0.0,0.0,0.0,0.0,0.0,0.0,0.0,1.1648503473423094e-10,3.134720019729341e-10,1.863113340322524e-11,0.0,0.0,0.0,0.0,0.0,0.0,0.0,0.0,0.0
1150.729,1150493,1150,729000000,base_footprint,-5.115540931029848e-06,0.0015896443594886004,0.0021738316044104494,0.9999963737238238,0.0,0.0,0.0,0.0,0.0,0.0,0.0,0.0,0.0,-4.682224885892015e-05,-0.00021157725095179763,1.021550436790945e-05,0.0,0.0,0.0,0.0,0.0,0.0,0.0,0.0,0.0,1.1668470139042317e-10,3.1424122027615833e-10,1.4664264091015003e-11,0.0,0.0,0.0,0.0,0.0,0.0,0.0,0.0,0.0
1150.73,1150494,1150,730000000,base_footprint,-5.115544046777861e-06,0.00158964435948044,0.00217383356587458,0.9999963737195599,0.0,0.0,0.0,0.0,0.0,0.0,0.0,0.0,0.0,-4.682224619847115e-05,-0.00021157725100694945,1.0215506441742068e-05,0.0,0.0,0.0,0.0,0.0,0.0,0.0,0.0,0.0,1.1635221899535543e-10,3.1316412738655985e-10,1.643842569171599e-11,0.0,0.0,0.0,0.0,0.0,0.0,0.0,0.0,0.0
1150.731,1150495,1150,731000000,base_footprint,-5.115547162515859e-06,0.0015896443594722767,0.0021738355273388413,0.9999963737152959,0.0,0.0,0.0,0.0,0.0,0.0,0.0,0.0,0.0,-4.6822243529993995e-05,-0.00021157725108015483,1.0215508519812403e-05,0.0,0.0,0.0,0.0,0.0,0.0,0.0,0.0,0.0,1.1659046348259182e-10,3.1387072475629527e-10,1.6026971825240026e-11,0.0,0.0,0.0,0.0,0.0,0.0,0.0,0.0,0.0
1150.732,1150496,1150,732000000,base_footprint,-5.115550278253508e-06,0.0015896443594641024,0.0021738374888032293,0.999996373711032,0.0,0.0,0.0,0.0,0.0,0.0,0.0,0.0,0.0,-4.682224088067463e-05,-0.00021157725116928116,1.0215510590223476e-05,0.0,0.0,0.0,0.0,0.0,0.0,0.0,0.0,0.0,1.1621210578788913e-10,3.1258782821880475e-10,1.8300655295908313e-11,0.0,0.0,0.0,0.0,0.0,0.0,0.0,0.0,0.0
1150.732,348227,1778966242,747851268,imu_link,-0.024075601249933243,0.021480167284607887,-0.37143540382385254,-0.9278934001922607,0.0024999999441206455,0.0,0.0,0.0,0.0024999999441206455,0.0,0.0,0.0,0.0024999999441206455,0.0,0.0,0.0,0.019999999552965164,0.0,0.0,0.0,0.019999999552965164,0.0,0.0,0.0,0.019999999552965164,0.5207388401031494,0.19452887773513794,9.618704795837402,0.03999999910593033,0.0,0.0,0.0,0.03999999910593033,0.0,0.0,0.0,0.03999999910593033
1150.733,1150497,1150,733000000,base_footprint,-5.115553394005311e-06,0.0015896443594559315,0.002173839450267747,0.9999963737067681,0.0,0.0,0.0,0.0,0.0,0.0,0.0,0.0,0.0,-4.682223826060173e-05,-0.0002115772512299422,1.0215512666844806e-05,0.0,0.0,0.0,0.0,0.0,0.0,0.0,0.0,0.0,1.16502421317705e-10,3.1356021991928945e-10,1.8608809680136442e-11,0.0,0.0,0.0,0.0,0.0,0.0,0.0,0.0,0.0
1150.734,1150498,1150,734000000,base_footprint,-5.115556509756557e-06,0.0015896443594477488,0.002173841411732402,0.9999963737025042,0.0,0.0,0.0,0.0,0.0,0.0,0.0,0.0,0.0,-4.682223561093835e-05,-0.0002115772513205949,1.0215514757181555e-05,0.0,0.0,0.0,0.0,0.0,0.0,0.0,0.0,0.0,1.1725463861548623e-10,3.1584034981518616e-10,1.8290291898239223e-11,0.0,0.0,0.0,0.0,0.0,0.0,0.0,0.0,0.0
1150.735,1150499,1150,735000000,base_footprint,-5.115559625500547e-06,0.00158964435943957,0.0021738433731971884,0.9999963736982402,0.0,0.0,0.0,0.0,0.0,0.0,0.0,0.0,0.0,-4.68222329480713e-05,-0.00021157725138004364,1.0215516837992547e-05,0.0,0.0,0.0,0.0,0.0,0.0,0.0,0.0,0.0,1.1672340618494228e-10,3.14308733172957e-10,1.7333310018070043e-11,0.0,0.0,0.0,0.0,0.0,0.0,0.0,0.0,0.0
1150.735,348228,1778966242,750851268,imu_link,-0.02340027131140232,0.021413134410977364,-0.3714539110660553,-0.9279049038887024,0.0024999999441206455,0.0,0.0,0.0,0.0024999999441206455,0.0,0.0,0.0,0.0024999999441206455,0.0,0.0,0.0,0.019999999552965164,0.0,0.0,0.0,0.019999999552965164,0.0,0.0,0.0,0.019999999552965164,0.5093663930892944,0.18914192914962769,9.583390235900879,0.03999999910593033,0.0,0.0,0.0,0.03999999910593033,0.0,0.0,0.0,0.03999999910593033
1150.736,1150500,1150,736000000,base_footprint,-5.115562741255368e-06,0.0015896443594313936,0.002173845334662102,0.9999963736939763,0.0,0.0,0.0,0.0,0.0,0.0,0.0,0.0,0.0,-4.6822230321211864e-05,-0.0002115772514427312,1.0215518908569613e-05,0.0,0.0,0.0,0.0,0.0,0.0,0.0,0.0,0.0,1.1618028624923265e-10,3.1257958196435275e-10,1.4948982835119958e-11,0.0,0.0,0.0,0.0,0.0,0.0,0.0,0.0,0.0
1150.737,1150501,1150,737000000,base_footprint,-5.115565857008022e-06,0.0015896443594232202,0.0021738472961271467,0.9999963736897124,0.0,0.0,0.0,0.0,0.0,0.0,0.0,0.0,0.0,-4.682222766839246e-05,-0.0002115772515040213,1.0215520987165792e-05,0.0,0.0,0.0,0.0,0.0,0.0,0.0,0.0,0.0,1.1660451364325874e-10,3.1393160537100336e-10,1.623596810051277e-11,0.0,0.0,0.0,0.0,0.0,0.0,0.0,0.0,0.0
1150.738,1150502,1150,738000000,base_footprint,-5.115568972743491e-06,0.0015896443594150388,0.002173849257592326,0.9999963736854484,0.0,0.0,0.0,0.0,0.0,0.0,0.0,0.0,0.0,-4.6822224985640354e-05,-0.00021157725158651693,1.0215523074071639e-05,0.0,0.0,0.0,0.0,0.0,0.0,0.0,0.0,0.0,1.170686574225551e-10,3.15335734018695e-10,1.774601648564763e-11,0.0,0.0,0.0,0.0,0.0,0.0,0.0,0.0,0.0
1150.739,1150503,1150,739000000,base_footprint,-5.115572088495217e-06,0.001589644359406862,0.002173851219057629,0.9999963736811845,0.0,0.0,0.0,0.0,0.0,0.0,0.0,0.0,0.0,-4.682222236959462e-05,-0.00021157725164587063,1.0215525137514926e-05,0.0,0.0,0.0,0.0,0.0,0.0,0.0,0.0,0.0,1.1580498893342082e-10,3.113980702270772e-10,1.564017922636221e-11,0.0,0.0,0.0,0.0,0.0,0.0,0.0,0.0,0.0
1150.74,1150504,1150,740000000,base_footprint,-5.115575204250558e-06,0.0015896443593986804,0.0021738531805230695,0.9999963736769205,0.0,0.0,0.0,0.0,0.0,0.0,0.0,0.0,0.0,-4.682221972850848e-05,-0.00021157725172199048,1.021552722988735e-05,0.0,0.0,0.0,0.0,0.0,0.0,0.0,0.0,0.0,1.1734359439642393e-10,3.1616237946370306e-10,1.8294584317055953e-11,0.0,0.0,0.0,0.0,0.0,0.0,0.0,0.0,0.0
1150.741,1150505,1150,741000000,base_footprint,-5.115578320004354e-06,0.0015896443593905044,0.0021738551419886324,0.9999963736726565,0.0,0.0,0.0,0.0,0.0,0.0,0.0,0.0,0.0,-4.6822217076768324e-05,-0.00021157725177770015,1.0215529292108804e-05,0.0,0.0,0.0,0.0,0.0,0.0,0.0,0.0,0.0,1.1574000493706597e-10,3.112551091936014e-10,1.486612848151431e-11,0.0,0.0,0.0,0.0,0.0,0.0,0.0,0.0,0.0
1150.741,348229,1778966242,757851268,imu_link,-0.022689396515488625,0.021225545555353165,-0.3714715242385864,-0.9279197454452515,0.0024999999441206455,0.0,0.0,0.0,0.0024999999441206455,0.0,0.0,0.0,0.0024999999441206455,0.0,0.0,0.0,0.019999999552965164,0.0,0.0,0.0,0.019999999552965164,0.0,0.0,0.0,0.019999999552965164,0.5003881454467773,0.1999158412218094,9.57560920715332,0.03999999910593033,0.0,0.0,0.0,0.03999999910593033,0.0,0.0,0.0,0.03999999910593033
1150.742,1150506,1150,742000000,base_footprint,-5.115581435748828e-06,0.00158964435938234,0.0021738571034543345,0.9999963736683926,0.0,0.0,0.0,0.0,0.0,0.0,0.0,0.0,0.0,-4.682221441008823e-05,-0.0002115772518222983,1.0215531386034206e-05,0.0,0.0,0.0,0.0,0.0,0.0,0.0,0.0,0.0,1.1738678066415515e-10,3.164584922248442e-10,1.553164366427518e-11,0.0,0.0,0.0,0.0,0.0,0.0,0.0,0.0,0.0
1150.743,1150507,1150,743000000,base_footprint,-5.115584551504323e-06,0.0015896443593741672,0.002173859064920169,0.9999963736641286,0.0,0.0,0.0,0.0,0.0,0.0,0.0,0.0,0.0,-4.682221178358659e-05,-0.00021157725190626574,1.0215533467219546e-05,0.0,0.0,0.0,0.0,0.0,0.0,0.0,0.0,0.0,1.1676471520231331e-10,3.143078726407969e-10,1.737489355838423e-11,0.0,0.0,0.0,0.0,0.0,0.0,0.0,0.0,0.0
1150.744,1150508,1150,744000000,base_footprint,-5.115587667253414e-06,0.001589644359366,0.0021738610263861385,0.9999963736598646,0.0,0.0,0.0,0.0,0.0,0.0,0.0,0.0,0.0,-4.68222091225559e-05,-0.00021157725196221914,1.0215535554811634e-05,0.0,0.0,0.0,0.0,0.0,0.0,0.0,0.0,0.0,1.1707360094166422e-10,3.154146205698683e-10,1.7556019107162432e-11,0.0,0.0,0.0,0.0,0.0,0.0,0.0,0.0,0.0
1150.745,1150509,1150,745000000,base_footprint,-5.115590783005936e-06,0.0015896443593578244,0.0021738629878522322,0.9999963736556006,0.0,0.0,0.0,0.0,0.0,0.0,0.0,0.0,0.0,-4.682220648057168e-05,-0.00021157725204620513,1.0215537620916311e-05,0.0,0.0,0.0,0.0,0.0,0.0,0.0,0.0,0.0,1.1597364527603323e-10,3.118711096758768e-10,1.5686418449966423e-11,0.0,0.0,0.0,0.0,0.0,0.0,0.0,0.0,0.0
1150.746,1150510,1150,746000000,base_footprint,-5.115593898755398e-06,0.0015896443593496517,0.0021738649493184535,0.9999963736513366,0.0,0.0,0.0,0.0,0.0,0.0,0.0,0.0,0.0,-4.682220382597916e-05,-0.00021157725210789498,1.0215539691890554e-05,0.0,0.0,0.0,0.0,0.0,0.0,0.0,0.0,0.0,1.1621100916401649e-10,3.126926593647213e-10,1.7839401110010737e-11,0.0,0.0,0.0,0.0,0.0,0.0,0.0,0.0,0.0
1150.747,1150511,1150,747000000,base_footprint,-5.115597014497444e-06,0.0015896443593414764,0.0021738669107848087,0.9999963736470726,0.0,0.0,0.0,0.0,0.0,0.0,0.0,0.0,0.0,-4.6822201162882074e-05,-0.00021157725218043578,1.0215541776414804e-05,0.0,0.0,0.0,0.0,0.0,0.0,0.0,0.0,0.0,1.1692643614404868e-10,3.149169708242768e-10,1.6323554890111342e-11,0.0,0.0,0.0,0.0,0.0,0.0,0.0,0.0,0.0
1150.748,1150512,1150,748000000,base_footprint,-5.1156001302561555e-06,0.0015896443593333112,0.002173868872251292,0.9999963736428086,0.0,0.0,0.0,0.0,0.0,0.0,0.0,0.0,0.0,-4.6822198547821244e-05,-0.00021157725222757025,1.0215543849584573e-05,0.0,0.0,0.0,0.0,0.0,0.0,0.0,0.0,0.0,1.1630082345891432e-10,3.129848258180011e-10,1.5817524071001467e-11,0.0,0.0,0.0,0.0,0.0,0.0,0.0,0.0,0.0
1150.748,1150513,1150,749000000,base_footprint,-5.115603246014425e-06,0.0015896443593251422,0.0021738708337179086,0.9999963736385448,0.0,0.0,0.0,0.0,0.0,0.0,0.0,0.0,0.0,-4.6822195898465635e-05,-0.00021157725230356865,1.0215545932645656e-05,0.0,0.0,0.0,0.0,0.0,0.0,0.0,0.0,0.0,1.1685614629447357e-10,3.1465413601825454e-10,1.7422918694628358e-11,0.0,0.0,0.0,0.0,0.0,0.0,0.0,0.0,0.0
1150.748,348230,1778966242,762851268,imu_link,-0.022689396515488625,0.021225545555353165,-0.3714715242385864,-0.9279197454452515,0.0024999999441206455,0.0,0.0,0.0,0.0024999999441206455,0.0,0.0,0.0,0.0024999999441206455,0.0,0.0,0.0,0.019999999552965164,0.0,0.0,0.0,0.019999999552965164,0.0,0.0,0.0,0.019999999552965164,0.5003881454467773,0.1999158412218094,9.57560920715332,0.03999999910593033,0.0,0.0,0.0,0.03999999910593033,0.0,0.0,0.0,0.03999999910593033
1150.75,1150514,1150,750000000,base_footprint,-5.115606361754428e-06,0.0015896443593169714,0.0021738727951846532,0.9999963736342807,0.0,0.0,0.0,0.0,0.0,0.0,0.0,0.0,0.0,-4.682219321331428e-05,-0.0002115772523733738,1.0215548005842129e-05,0.0,0.0,0.0,0.0,0.0,0.0,0.0,0.0,0.0,1.1634379310710748e-10,3.1310015854097073e-10,1.86649687802821e-11,0.0,0.0,0.0,0.0,0.0,0.0,0.0,0.0,0.0
1150.751,1150515,1150,751000000,base_footprint,-5.11560947750461e-06,0.001589644359308796,0.0021738747566515284,0.9999963736300167,0.0,0.0,0.0,0.0,0.0,0.0,0.0,0.0,0.0,-4.682219058525425e-05,-0.00021157725244990049,1.02155500836837e-05,0.0,0.0,0.0,0.0,0.0,0.0,0.0,0.0,0.0,1.1657032466789225e-10,3.1376915456772296e-10,1.4155444384534834e-11,0.0,0.0,0.0,0.0,0.0,0.0,0.0,0.0,0.0
1150.752,1150516,1150,752000000,base_footprint,-5.1156125932625345e-06,0.001589644359300631,0.002173876718118533,0.9999963736257527,0.0,0.0,0.0,0.0,0.0,0.0,0.0,0.0,0.0,-4.682218795236175e-05,-0.0002115772524962387,1.021555215925569e-05,0.0,0.0,0.0,0.0,0.0,0.0,0.0,0.0,0.0,1.1642822237999866e-10,3.1340840182389723e-10,1.6378439941481547e-11,0.0,0.0,0.0,0.0,0.0,0.0,0.0,0.0,0.0
1150.753,1150517,1150,753000000,base_footprint,-5.11561570901157e-06,0.001589644359292458,0.002173878679585667,0.9999963736214886,0.0,0.0,0.0,0.0,0.0,0.0,0.0,0.0,0.0,-4.682218528592566e-05,-0.00021157725257961202,1.0215554235293259e-05,0.0,0.0,0.0,0.0,0.0,0.0,0.0,0.0,0.0,1.1650312025430665e-10,3.135327200438964e-10,1.8399399919707722e-11,0.0,0.0,0.0,0.0,0.0,0.0,0.0,0.0,0.0
1150.754,1150518,1150,754000000,base_footprint,-5.115618824761705e-06,0.001589644359284285,0.0021738806410529256,0.9999963736172246,0.0,0.0,0.0,0.0,0.0,0.0,0.0,0.0,0.0,-4.6822182639460386e-05,-0.00021157725264682255,1.0215556300368072e-05,0.0,0.0,0.0,0.0,0.0,0.0,0.0,0.0,0.0,1.1590542782625971e-10,3.11712988900182e-10,1.6698440917233907e-11,0.0,0.0,0.0,0.0,0.0,0.0,0.0,0.0,0.0
1150.754,348231,1778966242,767851268,imu_link,-0.021957026794552803,0.02109084092080593,-0.3714902997016907,-0.9279329776763916,0.0024999999441206455,0.0,0.0,0.0,0.0024999999441206455,0.0,0.0,0.0,0.0024999999441206455,0.0,0.0,0.0,0.019999999552965164,0.0,0.0,0.0,0.019999999552965164,0.0,0.0,0.0,0.019999999552965164,0.5027823448181152,0.19273322820663452,9.601346969604492,0.03999999910593033,0.0,0.0,0.0,0.03999999910593033,0.0,0.0,0.0,0.03999999910593033
1150.755,1150519,1150,755000000,base_footprint,-5.115621940516278e-06,0.0015896443592760994,0.0021738826025203143,0.9999963736129606,0.0,0.0,0.0,0.0,0.0,0.0,0.0,0.0,0.0,-4.682217999973636e-05,-0.0002115772527391555,1.0215558377716253e-05,0.0,0.0,0.0,0.0,0.0,0.0,0.0,0.0,0.0,1.1657509753101206e-10,3.13706789265004e-10,1.8210360102080474e-11,0.0,0.0,0.0,0.0,0.0,0.0,0.0,0.0,0.0
1150.756,1150520,1150,756000000,base_footprint,-5.1156250562711565e-06,0.0015896443592679217,0.002173884563987838,0.9999963736086968,0.0,0.0,0.0,0.0,0.0,0.0,0.0,0.0,0.0,-4.6822177352134084e-05,-0.00021157725279159255,1.0215560463674986e-05,0.0,0.0,0.0,0.0,0.0,0.0,0.0,0.0,0.0,1.1697915106384467e-10,3.1512661939520257e-10,1.638565784289828e-11,0.0,0.0,0.0,0.0,0.0,0.0,0.0,0.0,0.0
1150.757,1150521,1150,757000000,base_footprint,-5.115628172030478e-06,0.001589644359259751,0.002173886525455486,0.9999963736044327,0.0,0.0,0.0,0.0,0.0,0.0,0.0,0.0,0.0,-4.682217471239529e-05,-0.00021157725284397315,1.0215562529980704e-05,0.0,0.0,0.0,0.0,0.0,0.0,0.0,0.0,0.0,1.1594179375371726e-10,3.119012310537098e-10,1.2607206788581423e-11,0.0,0.0,0.0,0.0,0.0,0.0,0.0,0.0,0.0
1150.758,1150522,1150,758000000,base_footprint,-5.115631287791697e-06,0.0015896443592515776,0.0021738884869232675,0.9999963736001685,0.0,0.0,0.0,0.0,0.0,0.0,0.0,0.0,0.0,-4.682217206781403e-05,-0.00021157725291591852,1.0215564614681743e-05,0.0,0.0,0.0,0.0,0.0,0.0,0.0,0.0,0.0,1.1693569764012494e-10,3.149142556048223e-10,1.699958990650103e-11,0.0,0.0,0.0,0.0,0.0,0.0,0.0,0.0,0.0
1150.759,1150523,1150,759000000,base_footprint,-5.115634403543856e-06,0.001589644359243413,0.0021738904483911766,0.9999963735959044,0.0,0.0,0.0,0.0,0.0,0.0,0.0,0.0,0.0,-4.682216940116203e-05,-0.0002115772529661654,1.021556668558886e-05,0.0,0.0,0.0,0.0,0.0,0.0,0.0,0.0,0.0,1.1619736427137724e-10,3.126962077468922e-10,1.7080810736789585e-11,0.0,0.0,0.0,0.0,0.0,0.0,0.0,0.0,0.0
1150.759,1150524,1150,760000000,base_footprint,-5.11563751930153e-06,0.0015896443592352443,0.002173892409859222,0.9999963735916406,0.0,0.0,0.0,0.0,0.0,0.0,0.0,0.0,0.0,-4.682216676383263e-05,-0.00021157725304308858,1.0215568773642316e-05,0.0,0.0,0.0,0.0,0.0,0.0,0.0,0.0,0.0,1.1711351885083808e-10,3.154495679624855e-10,1.6544359677508434e-11,0.0,0.0,0.0,0.0,0.0,0.0,0.0,0.0,0.0
1150.761,1150525,1150,761000000,base_footprint,-5.11564063505294e-06,0.001589644359227081,0.002173894371327393,0.9999963735873766,0.0,0.0,0.0,0.0,0.0,0.0,0.0,0.0,0.0,-4.682216410272691e-05,-0.00021157725309774747,1.0215570843328019e-05,0.0,0.0,0.0,0.0,0.0,0.0,0.0,0.0,0.0,1.1613654840406669e-10,3.1248855150922523e-10,1.6935303683089512e-11,0.0,0.0,0.0,0.0,0.0,0.0,0.0,0.0,0.0
1150.761,348232,1778966242,772851268,imu_link,-0.021217798814177513,0.0210567694157362,-0.37151023745536804,-0.9279428124427795,0.0024999999441206455,0.0,0.0,0.0,0.0024999999441206455,0.0,0.0,0.0,0.0024999999441206455,0.0,0.0,0.0,0.019999999552965164,0.0,0.0,0.0,0.019999999552965164,0.0,0.0,0.0,0.019999999552965164,0.5123591423034668,0.19871874153614044,9.563039779663086,0.03999999910593033,0.0,0.0,0.0,0.03999999910593033,0.0,0.0,0.0,0.03999999910593033
1150.762,1150526,1150,762000000,base_footprint,-5.115643750799954e-06,0.0015896443592189097,0.0021738963327956884,0.9999963735831123,0.0,0.0,0.0,0.0,0.0,0.0,0.0,0.0,0.0,-4.682216144529722e-05,-0.00021157725318093,1.0215572909801613e-05,0.0,0.0,0.0,0.0,0.0,0.0,0.0,0.0,0.0,1.1599759911819218e-10,3.1195870310728694e-10,1.719221028721871e-11,0.0,0.0,0.0,0.0,0.0,0.0,0.0,0.0,0.0
1150.763,1150527,1150,763000000,base_footprint,-5.115646866555453e-06,0.0015896443592107357,0.0021738982942641144,0.9999963735788483,0.0,0.0,0.0,0.0,0.0,0.0,0.0,0.0,0.0,-4.6822158813817166e-05,-0.00021157725325416697,1.021557498687541e-05,0.0,0.0,0.0,0.0,0.0,0.0,0.0,0.0,0.0,1.1654749518703483e-10,3.1365033658901136e-10,2.0647496877036287e-11,0.0,0.0,0.0,0.0,0.0,0.0,0.0,0.0,0.0
1150.764,1150528,1150,764000000,base_footprint,-5.115649982318218e-06,0.0015896443592025569,0.0021739002557326806,0.9999963735745843,0.0,0.0,0.0,0.0,0.0,0.0,0.0,0.0,0.0,-4.6822156180024615e-05,-0.0002115772533313943,1.021557708358004e-05,0.0,0.0,0.0,0.0,0.0,0.0,0.0,0.0,0.0,1.1756002292388876e-10,3.1685640654912037e-10,1.4964580697663025e-11,0.0,0.0,0.0,0.0,0.0,0.0,0.0,0.0,0.0
1150.765,1150529,1150,765000000,base_footprint,-5.115653098071642e-06,0.001589644359194373,0.0021739022172013816,0.9999963735703202,0.0,0.0,0.0,0.0,0.0,0.0,0.0,0.0,0.0,-4.6822153512876015e-05,-0.00021157725340888872,1.0215579170715645e-05,0.0,0.0,0.0,0.0,0.0,0.0,0.0,0.0,0.0,1.1707695433558346e-10,3.153447224269889e-10,1.8313802943220672e-11,0.0,0.0,0.0,0.0,0.0,0.0,0.0,0.0,0.0
1150.766,1150530,1150,766000000,base_footprint,-5.115656213834233e-06,0.0015896443591861952,0.002173904178670213,0.9999963735660562,0.0,0.0,0.0,0.0,0.0,0.0,0.0,0.0,0.0,-4.682215088280867e-05,-0.00021157725346366877,1.0215581248780655e-05,0.0,0.0,0.0,0.0,0.0,0.0,0.0,0.0,0.0,1.1656621357355284e-10,3.1380753548390227e-10,1.5793220159747445e-11,0.0,0.0,0.0,0.0,0.0,0.0,0.0,0.0,0.0
1150.767,1150531,1150,767000000,base_footprint,-5.115659329589436e-06,0.0015896443591780203,0.002173906140139178,0.9999963735617922,0.0,0.0,0.0,0.0,0.0,0.0,0.0,0.0,0.0,-4.682214821960392e-05,-0.00021157725352535404,1.0215583331594142e-05,0.0,0.0,0.0,0.0,0.0,0.0,0.0,0.0,0.0,1.1682603245734998e-10,3.1463587632577054e-10,1.600231640401175e-11,0.0,0.0,0.0,0.0,0.0,0.0,0.0,0.0,0.0
1150.768,1150532,1150,768000000,base_footprint,-5.1156624453354225e-06,0.001589644359169847,0.0021739081016082717,0.9999963735575281,0.0,0.0,0.0,0.0,0.0,0.0,0.0,0.0,0.0,-4.682214555270074e-05,-0.0002115772535892466,1.0215585406661417e-05,0.0,0.0,0.0,0.0,0.0,0.0,0.0,0.0,0.0,1.1642257822536383e-10,3.133773078518372e-10,1.5499979106314538e-11,0.0,0.0,0.0,0.0,0.0,0.0,0.0,0.0,0.0
1150.769,1150533,1150,769000000,base_footprint,-5.11566556108575e-06,0.0015896443591616825,0.002173910063077502,0.9999963735532641,0.0,0.0,0.0,0.0,0.0,0.0,0.0,0.0,0.0,-4.682214291345622e-05,-0.00021157725363902947,1.0215587495246405e-05,0.0,0.0,0.0,0.0,0.0,0.0,0.0,0.0,0.0,1.1710771281315638e-10,3.1554436053677437e-10,1.523669329805507e-11,0.0,0.0,0.0,0.0,0.0,0.0,0.0,0.0,0.0
1150.77,1150534,1150,770000000,base_footprint,-5.115668676845198e-06,0.001589644359153511,0.0021739120245468516,0.999996373549,0.0,0.0,0.0,0.0,0.0,0.0,0.0,0.0,0.0,-4.6822140282693997e-05,-0.00021157725371968522,1.0215589552131605e-05,0.0,0.0,0.0,0.0,0.0,0.0,0.0,0.0,0.0,1.1549779672695708e-10,3.1034822222665006e-10,1.901094534400161e-11,0.0,0.0,0.0,0.0,0.0,0.0,0.0,0.0,0.0
1150.771,1150535,1150,771000000,base_footprint,-5.115671792597175e-06,0.0015896443591453316,0.0021739139860163337,0.9999963735447358,0.0,0.0,0.0,0.0,0.0,0.0,0.0,0.0,0.0,-4.682213761929212e-05,-0.0002115772538028101,1.021559163429304e-05,0.0,0.0,0.0,0.0,0.0,0.0,0.0,0.0,0.0,1.168174362107801e-10,3.145326707988988e-10,1.7662402928690402e-11,0.0,0.0,0.0,0.0,0.0,0.0,0.0,0.0,0.0
1150.772,1150536,1150,772000000,base_footprint,-5.115674908360096e-06,0.0015896443591371513,0.0021739159474859437,0.9999963735404718,0.0,0.0,0.0,0.0,0.0,0.0,0.0,0.0,0.0,-4.6822134992587204e-05,-0.0002115772538724728,1.0215593706099896e-05,0.0,0.0,0.0,0.0,0.0,0.0,0.0,0.0,0.0,1.1625001855682081e-10,3.1278078815820273e-10,1.462580597334373e-11,0.0,0.0,0.0,0.0,0.0,0.0,0.0,0.0,0.0
1150.773,1150537,1150,773000000,base_footprint,-5.115678024116784e-06,0.0015896443591289866,0.0021739179089556807,0.9999963735362076,0.0,0.0,0.0,0.0,0.0,0.0,0.0,0.0,0.0,-4.682213233170739e-05,-0.00021157725390801794,1.0215595776717519e-05,0.0,0.0,0.0,0.0,0.0,0.0,0.0,0.0,0.0,1.1616305210366696e-10,3.1264280083118084e-10,1.6402511628739756e-11,0.0,0.0,0.0,0.0,0.0,0.0,0.0,0.0,0.0
1150.774,1150538,1150,774000000,base_footprint,-5.115681139867354e-06,0.001589644359120819,0.0021739198704255483,0.9999963735319436,0.0,0.0,0.0,0.0,0.0,0.0,0.0,0.0,0.0,-4.682212967098045e-05,-0.0002115772539815172,1.0215597854924493e-05,0.0,0.0,0.0,0.0,0.0,0.0,0.0,0.0,0.0,1.165998909825279e-10,3.1387890146256985e-10,1.6761160190236302e-11,0.0,0.0,0.0,0.0,0.0,0.0,0.0,0.0,0.0
1150.775,1150539,1150,775000000,base_footprint,-5.115684255616347e-06,0.0015896443591126499,0.002173921831895547,0.9999963735276794,0.0,0.0,0.0,0.0,0.0,0.0,0.0,0.0,0.0,-4.6822127019408826e-05,-0.0002115772540522065,1.0215599933414548e-05,0.0,0.0,0.0,0.0,0.0,0.0,0.0,0.0,0.0,1.1661332036455284e-10,3.1391124774579334e-10,1.771652071507977e-11,0.0,0.0,0.0,0.0,0.0,0.0,0.0,0.0,0.0
1150.776,1150540,1150,776000000,base_footprint,-5.115687371378244e-06,0.0015896443591044847,0.0021739237933656686,0.9999963735234153,0.0,0.0,0.0,0.0,0.0,0.0,0.0,0.0,0.0,-4.682212439660553e-05,-0.00021157725411097026,1.021560199688054e-05,0.0,0.0,0.0,0.0,0.0,0.0,0.0,0.0,0.0,1.1580442981009947e-10,3.1141410661041813e-10,1.526625769536913e-11,0.0,0.0,0.0,0.0,0.0,0.0,0.0,0.0,0.0
1150.777,1150541,1150,777000000,base_footprint,-5.115690487138845e-06,0.00158964435909632,0.0021739257548359287,0.9999963735191512,0.0,0.0,0.0,0.0,0.0,0.0,0.0,0.0,0.0,-4.6822121745790424e-05,-0.0002115772541775245,1.0215604090136371e-05,0.0,0.0,0.0,0.0,0.0,0.0,0.0,0.0,0.0,1.1737820956973552e-10,3.1632176680516313e-10,1.728844866032159e-11,0.0,0.0,0.0,0.0,0.0,0.0,0.0,0.0,0.0
1150.778,1150542,1150,778000000,base_footprint,-5.115693602901249e-06,0.001589644359088148,0.002173927716306315,0.9999963735148872,0.0,0.0,0.0,0.0,0.0,0.0,0.0,0.0,0.0,-4.682211910053894e-05,-0.00021157725426040034,1.0215606158420527e-05,0.0,0.0,0.0,0.0,0.0,0.0,0.0,0.0,0.0,1.1609749780061196e-10,3.1223113422615543e-10,1.8946542508785628e-11,0.0,0.0,0.0,0.0,0.0,0.0,0.0,0.0,0.0
1150.779,1150543,1150,779000000,base_footprint,-5.115696718662553e-06,0.001589644359079965,0.0021739296777768323,0.9999963735106231,0.0,0.0,0.0,0.0,0.0,0.0,0.0,0.0,0.0,-4.682211644976809e-05,-0.0002115772543486503,1.021560823806418e-05,0.0,0.0,0.0,0.0,0.0,0.0,0.0,0.0,0.0,1.1668322481077848e-10,3.140995512092717e-10,1.543228983782256e-11,0.0,0.0,0.0,0.0,0.0,0.0,0.0,0.0,0.0
1150.78,1150544,1150,780000000,base_footprint,-5.115699834411081e-06,0.001589644359071789,0.0021739316392474905,0.999996373506359,0.0,0.0,0.0,0.0,0.0,0.0,0.0,0.0,0.0,-4.6822113776239915e-05,-0.00021157725440199197,1.0215610336547476e-05,0.0,0.0,0.0,0.0,0.0,0.0,0.0,0.0,0.0,1.1764900260100742e-10,3.17212273520717e-10,1.9950854016190508e-11,0.0,0.0,0.0,0.0,0.0,0.0,0.0,0.0,0.0
1150.781,1150545,1150,781000000,base_footprint,-5.115702950163339e-06,0.0015896443590636077,0.0021739336007182784,0.9999963735020948,0.0,0.0,0.0,0.0,0.0,0.0,0.0,0.0,0.0,-4.682211113507951e-05,-0.00021157725448022995,1.0215612412849387e-05,0.0,0.0,0.0,0.0,0.0,0.0,0.0,0.0,0.0,1.1650438617179778e-10,3.135343055032188e-10,1.699089482146556e-11,0.0,0.0,0.0,0.0,0.0,0.0,0.0,0.0,0.0
1150.782,1150546,1150,782000000,base_footprint,-5.115706065933076e-06,0.001589644359055445,0.0021739355621891933,0.9999963734978307,0.0,0.0,0.0,0.0,0.0,0.0,0.0,0.0,0.0,-4.682210852170783e-05,-0.00021157725451008037,1.0215614483490453e-05,0.0,0.0,0.0,0.0,0.0,0.0,0.0,0.0,0.0,1.1613801213440778e-10,3.1257225331886863e-10,1.2159044319491938e-11,0.0,0.0,0.0,0.0,0.0,0.0,0.0,0.0,0.0
1150.783,1150547,1150,783000000,base_footprint,-5.115709181695982e-06,0.0015896443590472788,0.002173937523660234,0.9999963734935665,0.0,0.0,0.0,0.0,0.0,0.0,0.0,0.0,0.0,-4.682210585927138e-05,-0.00021157725458404139,1.0215616552063281e-05,0.0,0.0,0.0,0.0,0.0,0.0,0.0,0.0,0.0,1.1609595070080154e-10,3.1230896707732635e-10,1.6309576880098407e-11,0.0,0.0,0.0,0.0,0.0,0.0,0.0,0.0,0.0
1150.784,1150548,1150,784000000,base_footprint,-5.115712297447495e-06,0.0015896443590391164,0.0021739394851314053,0.9999963734893024,0.0,0.0,0.0,0.0,0.0,0.0,0.0,0.0,0.0,-4.682210318819422e-05,-0.0002115772546436358,1.0215618630148953e-05,0.0,0.0,0.0,0.0,0.0,0.0,0.0,0.0,0.0,1.1657850593557155e-10,3.138784932681025e-10,1.6438473077781248e-11,0.0,0.0,0.0,0.0,0.0,0.0,0.0,0.0,0.0
1150.785,1150549,1150,785000000,base_footprint,-5.115715413197898e-06,0.0015896443590309429,0.002173941446602712,0.9999963734850382,0.0,0.0,0.0,0.0,0.0,0.0,0.0,0.0,0.0,-4.682210053754337e-05,-0.00021157725473378274,1.0215620716760888e-05,0.0,0.0,0.0,0.0,0.0,0.0,0.0,0.0,0.0,1.1705834440366823e-10,3.152357320089646e-10,1.8189322325699413e-11,0.0,0.0,0.0,0.0,0.0,0.0,0.0,0.0,0.0
1150.786,1150550,1150,786000000,base_footprint,-5.115718528954369e-06,0.0015896443590227639,0.0021739434080741502,0.9999963734807741,0.0,0.0,0.0,0.0,0.0,0.0,0.0,0.0,0.0,-4.682209790119096e-05,-0.000211577254811881,1.0215622797697762e-05,0.0,0.0,0.0,0.0,0.0,0.0,0.0,0.0,0.0,1.1675303922936192e-10,3.142874872411414e-10,1.9939996758143345e-11,0.0,0.0,0.0,0.0,0.0,0.0,0.0,0.0,0.0
1150.787,1150551,1150,787000000,base_footprint,-5.115721644723428e-06,0.0015896443590145857,0.00217394536954572,0.9999963734765099,0.0,0.0,0.0,0.0,0.0,0.0,0.0,0.0,0.0,-4.682209527791481e-05,-0.00021157725487763984,1.0215624877709758e-05,0.0,0.0,0.0,0.0,0.0,0.0,0.0,0.0,0.0,1.1667952309328756e-10,3.1411479087946334e-10,1.633404359459967e-11,0.0,0.0,0.0,0.0,0.0,0.0,0.0,0.0,0.0
1150.788,1150552,1150,788000000,base_footprint,-5.115724760485385e-06,0.0015896443590064085,0.0021739473310174225,0.9999963734722458,0.0,0.0,0.0,0.0,0.0,0.0,0.0,0.0,0.0,-4.682209261526574e-05,-0.0002115772549427274,1.0215626960064892e-05,0.0,0.0,0.0,0.0,0.0,0.0,0.0,0.0,0.0,1.1680608187109384e-10,3.145604342943931e-10,1.626371574536112e-11,0.0,0.0,0.0,0.0,0.0,0.0,0.0,0.0,0.0
1150.789,1150553,1150,789000000,base_footprint,-5.115727876242935e-06,0.0015896443589982307,0.002173949292489248,0.9999963734679816,0.0,0.0,0.0,0.0,0.0,0.0,0.0,0.0,0.0,-4.682208995771256e-05,-0.00021157725501082583,1.0215629022597799e-05,0.0,0.0,0.0,0.0,0.0,0.0,0.0,0.0,0.0,1.1577691012219812e-10,3.1131318984105603e-10,1.694795293595164e-11,0.0,0.0,0.0,0.0,0.0,0.0,0.0,0.0,0.0
1150.79,1150554,1150,790000000,base_footprint,-5.115730992004566e-06,0.0015896443589900485,0.0021739512539611957,0.9999963734637175,0.0,0.0,0.0,0.0,0.0,0.0,0.0,0.0,0.0,-4.682208731713917e-05,-0.0002115772550872208,1.021563108371206e-05,0.0,0.0,0.0,0.0,0.0,0.0,0.0,0.0,0.0,1.1570308581542565e-10,3.110597278565649e-10,1.5898868713807423e-11,0.0,0.0,0.0,0.0,0.0,0.0,0.0,0.0,0.0
1150.79,348233,1778966242,781851268,imu_link,-0.021217798814177513,0.0210567694157362,-0.37151023745536804,-0.9279428124427795,0.0024999999441206455,0.0,0.0,0.0,0.0024999999441206455,0.0,0.0,0.0,0.0024999999441206455,0.0,0.0,0.0,0.019999999552965164,0.0,0.0,0.0,0.019999999552965164,0.0,0.0,0.0,0.019999999552965164,0.5123591423034668,0.19871874153614044,9.563039779663086,0.03999999910593033,0.0,0.0,0.0,0.03999999910593033,0.0,0.0,0.0,0.03999999910593033
1150.791,1150555,1150,791000000,base_footprint,-5.115734107770793e-06,0.0015896443589818764,0.002173953215433277,0.9999963734594534,0.0,0.0,0.0,0.0,0.0,0.0,0.0,0.0,0.0,-4.682208467813648e-05,-0.00021157725513385822,1.0215633167151802e-05,0.0,0.0,0.0,0.0,0.0,0.0,0.0,0.0,0.0,1.1683796494123077e-10,3.1470218233218544e-10,1.5667412927105858e-11,0.0,0.0,0.0,0.0,0.0,0.0,0.0,0.0,0.0
1150.792,1150556,1150,792000000,base_footprint,-5.1157372235164724e-06,0.0015896443589736974,0.00217395517690549,0.9999963734551892,0.0,0.0,0.0,0.0,0.0,0.0,0.0,0.0,0.0,-4.682208198841434e-05,-0.00021157725521485794,1.0215635247231617e-05,0.0,0.0,0.0,0.0,0.0,0.0,0.0,0.0,0.0,1.1670693237536158e-10,3.1422927934006725e-10,1.5864912687937764e-11,0.0,0.0,0.0,0.0,0.0,0.0,0.0,0.0,0.0
1150.793,1150557,1150,793000000,base_footprint,-5.115740339284456e-06,0.0015896443589655208,0.002173957138377838,0.9999963734509251,0.0,0.0,0.0,0.0,0.0,0.0,0.0,0.0,0.0,-4.682207938489798e-05,-0.00021157725527799827,1.0215637334843192e-05,0.0,0.0,0.0,0.0,0.0,0.0,0.0,0.0,0.0,1.1707680698787976e-10,3.1532555973144967e-10,1.8366814612451433e-11,0.0,0.0,0.0,0.0,0.0,0.0,0.0,0.0,0.0
1150.794,1150558,1150,794000000,base_footprint,-5.115743455050041e-06,0.0015896443589573444,0.002173959099850307,0.9999963734466607,0.0,0.0,0.0,0.0,0.0,0.0,0.0,0.0,0.0,-4.682207673108836e-05,-0.00021157725534357122,1.0215639393845635e-05,0.0,0.0,0.0,0.0,0.0,0.0,0.0,0.0,0.0,1.155887898235176e-10,3.107300844505965e-10,1.661201616290773e-11,0.0,0.0,0.0,0.0,0.0,0.0,0.0,0.0,0.0
1150.795,1150559,1150,795000000,base_footprint,-5.115746570811869e-06,0.0015896443589491732,0.0021739610613229097,0.9999963734423966,0.0,0.0,0.0,0.0,0.0,0.0,0.0,0.0,0.0,-4.6822074075370797e-05,-0.00021157725540117876,1.0215641477455997e-05,0.0,0.0,0.0,0.0,0.0,0.0,0.0,0.0,0.0,1.1685681219277353e-10,3.14756518332744e-10,1.460487599446819e-11,0.0,0.0,0.0,0.0,0.0,0.0,0.0,0.0,0.0
1150.796,1150560,1150,796000000,base_footprint,-5.115749686570383e-06,0.0015896443589410057,0.002173963022795645,0.9999963734381324,0.0,0.0,0.0,0.0,0.0,0.0,0.0,0.0,0.0,-4.682207142031702e-05,-0.0002115772554610848,1.0215643559090912e-05,0.0,0.0,0.0,0.0,0.0,0.0,0.0,0.0,0.0,1.167653884135397e-10,3.1442883571955325e-10,1.6978116570494216e-11,0.0,0.0,0.0,0.0,0.0,0.0,0.0,0.0,0.0
1150.797,1150561,1150,797000000,base_footprint,-5.115752802322003e-06,0.0015896443589328401,0.0021739649842685074,0.9999963734338683,0.0,0.0,0.0,0.0,0.0,0.0,0.0,0.0,0.0,-4.682206875801103e-05,-0.00021157725552435367,1.0215645630578801e-05,0.0,0.0,0.0,0.0,0.0,0.0,0.0,0.0,0.0,1.1623660764555793e-10,3.127855362234726e-10,1.620660285941103e-11,0.0,0.0,0.0,0.0,0.0,0.0,0.0,0.0,0.0
